{
  "resourceType": "MeasureReport",
  "contained": [
    {
      "resourceType": "Bundle",
      "id": "a59958e2-d407-411a-b976-cde9c87f055c",
      "type": "collection",
      "entry": [
        {
          "fullUrl": "DiagnosticReport/cbb3375f-0962-4f31-8681-c7e6f29968dd-3/_history/1",
          "resource": {
            "resourceType": "DiagnosticReport",
            "id": "cbb3375f-0962-4f31-8681-c7e6f29968dd-3",
            "meta": {
              "versionId": "1",
              "lastUpdated": "2019-09-14T14:15:02.398+00:00"
            },
            "text": {
              "status": "generated",
              "div": "<div xmlns=\"http://www.w3.org/1999/xhtml\"><div class=\"hapiHeaderText\"> MG Breast Diagnostic Limited Views </div><table class=\"hapiPropertyTable\"><tbody><tr><td>Status</td><td>FINAL</td></tr></tbody></table></div>"
            },
            "status": "final",
            "code": {
              "coding": [
                {
                  "system": "http://loinc.org",
                  "code": "24604-1",
                  "display": "MG Breast Diagnostic Limited Views"
                }
              ]
            },
            "subject": {
              "reference": "Patient/cbb3375f-0962-4f31-8681-c7e6f29968dd-1"
            },
            "effectivePeriod": {
              "start": "2016-11-01T00:00:00",
              "end": "2016-11-01T00:00:00"
            }
          }
        },
        {
          "fullUrl": "8cdd9975-48c9-48ab-83fa-1da95a7aae3d",
          "resource": {
            "resourceType": "List",
            "id": "8cdd9975-48c9-48ab-83fa-1da95a7aae3d",
            "title": "initial-population",
            "entry": [
              {
                "item": {
                  "reference": "#Encounter/cbb3375f-0962-4f31-8681-c7e6f29968dd-2/_history/1"
                }
              },
              {
                "item": {
                  "reference": "#Patient/cbb3375f-0962-4f31-8681-c7e6f29968dd-1/_history/1"
                }
              }
            ]
          }
        },
        {
          "fullUrl": "Encounter/cbb3375f-0962-4f31-8681-c7e6f29968dd-2/_history/1",
          "resource": {
            "resourceType": "Encounter",
            "id": "cbb3375f-0962-4f31-8681-c7e6f29968dd-2",
            "meta": {
              "versionId": "1",
              "lastUpdated": "2019-09-14T14:15:02.398+00:00",
              "profile": [
                "http://hl7.org/fhir/us/core/StructureDefinition/us-core-encounter"
              ]
            },
            "status": "finished",
            "class": {
              "system": "http://terminology.hl7.org/CodeSystem/v3-ActCode",
              "code": "AMB",
              "display": "ambulatory"
            },
            "type": [
              {
                "coding": [
                  {
                    "system": "http://www.ama-assn.org/go/cpt",
                    "code": "99201",
                    "display": "Office or other outpatient visit for the evaluation and management of a new patient, which requires these 3 key components: A problem focused history; A problem focused examination; Straightforward medical decision making. Counseling and/or coordination of care with other physicians, other qualified health care professionals, or agencies are provided consistent with the nature of the problem(s) and the patient's and/or family's needs. Usually, the presenting problem(s) are self limited or minor. Typically, 10 minutes are spent face-to-face with the patient and/or family."
                  }
                ]
              }
            ],
            "subject": {
              "reference": "Patient/cbb3375f-0962-4f31-8681-c7e6f29968dd-1"
            },
            "period": {
              "start": "2019-05-30T00:00:00-00:00",
              "end": "2019-05-31T00:00:00-00:00"
            }
          }
        },
        {
          "fullUrl": "Patient/cbb3375f-0962-4f31-8681-c7e6f29968dd-1/_history/1",
          "resource": {
            "resourceType": "Patient",
            "id": "cbb3375f-0962-4f31-8681-c7e6f29968dd-1",
            "meta": {
              "versionId": "1",
              "lastUpdated": "2019-09-14T14:15:02.398+00:00",
              "profile": [
                "http://hl7.org/fhir/us/core/StructureDefinition/us-core-patient"
              ]
            },
            "text": {
              "status": "generated",
              "div": "<div xmlns=\"http://www.w3.org/1999/xhtml\"><div class=\"hapiHeaderText\">Miss <b>NOMER </b></div><table class=\"hapiPropertyTable\"><tbody><tr><td>Identifier</td><td>999999993</td></tr><tr><td>Date of birth</td><td><span>01 January 1965</span></td></tr></tbody></table></div>"
            },
            "extension": [
              {
                "url": "http://hl7.org/fhir/us/core/StructureDefinition/us-core-race",
                "extension": [
                  {
                    "url": "ombCategory",
                    "valueCoding": {
                      "system": "urn:oid:2.16.840.1.113883.6.238",
                      "code": "2106-3",
                      "display": "White"
                    }
                  }
                ]
              },
              {
                "url": "http://hl7.org/fhir/us/core/StructureDefinition/us-core-ethnicity",
                "extension": [
                  {
                    "url": "ombCategory",
                    "valueCoding": {
                      "system": "urn:oid:2.16.840.1.113883.6.238",
                      "code": "2186-5",
                      "display": "Not Hispanic or Latino"
                    }
                  }
                ]
              }
            ],
            "identifier": [
              {
                "use": "usual",
                "type": {
                  "coding": [
                    {
                      "system": "http://terminology.hl7.org/CodeSystem/v2-0203",
                      "code": "MR",
                      "display": "Medical Record Number"
                    }
                  ]
                },
                "system": "http://hospital.smarthealthit.org",
                "value": "999999993"
              }
            ],
            "name": [
              {
                "family": "Nomer",
                "given": [
                  "Miss"
                ]
              }
            ],
            "gender": "female",
            "birthDate": "1965-01-01"
          }
        },
        {
          "fullUrl": "635cafd1-e829-4746-850e-fbfdb5ec14c8",
          "resource": {
            "resourceType": "List",
            "id": "635cafd1-e829-4746-850e-fbfdb5ec14c8",
            "title": "numerator",
            "entry": [
              {
                "item": {
                  "reference": "#DiagnosticReport/cbb3375f-0962-4f31-8681-c7e6f29968dd-3/_history/1"
                }
              }
            ]
          }
        }
      ]
    }
  ],
  "status": "complete",
  "type": "individual",
  "measure": {
    "reference": "Measure/measure-exm125-FHIR3"
  },
  "patient": {
    "reference": "Patient/cbb3375f-0962-4f31-8681-c7e6f29968dd-1"
  },
  "period": {
    "start": "2019-01-01T00:00:00+00:00",
    "end": "2019-12-31T00:00:00+00:00"
  },
  "group": [
    {
      "identifier": {
        "value": "group-1"
      },
      "population": [
        {
          "identifier": {
            "value": "initial-population-identifier"
          },
          "code": {
            "coding": [
              {
                "system": "http://terminology.hl7.org/CodeSystem/measure-population",
                "code": "initial-population",
                "display": "Initial Population"
              }
            ]
          },
          "count": 1
        },
        {
          "identifier": {
            "value": "numerator-identifier"
          },
          "code": {
            "coding": [
              {
                "system": "http://terminology.hl7.org/CodeSystem/measure-population",
                "code": "numerator",
                "display": "Numerator"
              }
            ]
          },
          "count": 0
        },
        {
          "identifier": {
            "value": "denominator-identifier"
          },
          "code": {
            "coding": [
              {
                "system": "http://terminology.hl7.org/CodeSystem/measure-population",
                "code": "denominator",
                "display": "Denominator"
              }
            ]
          },
          "count": 1
        },
        {
          "identifier": {
            "value": "denominator-exclusions-identifier"
          },
          "code": {
            "coding": [
              {
                "system": "http://terminology.hl7.org/CodeSystem/measure-population",
                "code": "denominator-exclusion",
                "display": "Denominator Exclusion"
              }
            ]
          },
          "count": 0
        }
      ],
      "measureScore": 0.0
    }
  ],
  "evaluatedResources": {
    "reference": "#a59958e2-d407-411a-b976-cde9c87f055c"
  }
}