{
  "resourceType": "Bundle",
  "id": "tests-numer-EXM104-FHIR4-bundle",
  "type": "transaction",
  "entry": [
    {
      "resource": {
        "resourceType": "Condition",
        "id": "numer-EXM104-FHIR4-1",
        "meta": {
          "profile": [
            "http://hl7.org/fhir/us/core/StructureDefinition/us-core-condition"
          ]
        },
        "verificationStatus": {
          "coding": [
            {
              "system": "http://terminology.hl7.org/CodeSystem/condition-ver-status",
              "code": "confirmed",
              "display": "Confirmed"
            }
          ]
        },
        "category": [
          {
            "coding": [
              {
                "system": "http://terminology.hl7.org/CodeSystem/condition-category",
                "code": "encounter-diagnosis",
                "display": "Encounter Diagnosis"
              }
            ]
          }
        ],
        "code": {
          "coding": [
            {
              "system": "http://snomed.info/sct",
              "code": "116288000",
              "display": "Paralytic stroke (disorder)"
            }
          ]
        },
        "subject": {
          "reference": "Patient/numer-EXM104-FHIR4"
        }
      },
      "request": {
        "method": "PUT",
        "url": "Condition/numer-EXM104-FHIR4-1"
      }
    },
    {
      "resource": {
        "resourceType": "Encounter",
        "id": "numer-EXM104-FHIR4-2",
        "meta": {
          "profile": [
            "http://hl7.org/fhir/us/core/StructureDefinition/us-core-encounter"
          ]
        },
        "status": "finished",
        "class": {
          "system": "http://terminology.hl7.org/CodeSystem/v3-ActCode",
          "code": "IMP",
          "display": "inpatient encounter"
        },
        "type": [
          {
            "coding": [
              {
                "system": "http://snomed.info/sct",
                "code": "32485007",
                "display": "Hospital admission (procedure)"
              }
            ]
          }
        ],
        "subject": {
          "reference": "Patient/numer-EXM104-FHIR4"
        },
        "period": {
          "start": "2019-08-21T00:00:00-06:00",
          "end": "2019-12-19T08:15:00-07:00"
        },
        "diagnosis": [
          {
            "condition": {
              "reference": "Condition/numer-EXM104-FHIR4-1"
            },
            "use": {
              "coding": [
                {
                  "system": "http://hl7.org/fhir/diagnosis-role",
                  "code": "billing",
                  "display": "Billing"
                }
              ]
            },
            "rank": 1
          }
        ]
      },
      "request": {
        "method": "PUT",
        "url": "Encounter/numer-EXM104-FHIR4-2"
      }
    },
    {
      "resource": {
        "resourceType": "MeasureReport",
        "id": "measurereport-numer-EXM104-FHIR4",
        "contained": [
          {
            "resourceType": "Bundle",
            "id": "e1766328-68d5-4cd8-8233-7710c7b6c3a0",
            "type": "collection",
            "entry": [
              {
                "fullUrl": "Condition/numer-EXM104-FHIR4-1",
                "resource": {
                  "resourceType": "Condition",
                  "id": "numer-EXM104-FHIR4-1",
                  "meta": {
                    "versionId": "1",
                    "lastUpdated": "2019-12-31T10:18:59.599-07:00",
                    "profile": [
                      "http://hl7.org/fhir/us/core/StructureDefinition/us-core-condition"
                    ]
                  },
                  "verificationStatus": {
                    "coding": [
                      {
                        "system": "http://terminology.hl7.org/CodeSystem/condition-ver-status",
                        "code": "confirmed",
                        "display": "Confirmed"
                      }
                    ]
                  },
                  "category": [
                    {
                      "coding": [
                        {
                          "system": "http://terminology.hl7.org/CodeSystem/condition-category",
                          "code": "encounter-diagnosis",
                          "display": "Encounter Diagnosis"
                        }
                      ]
                    }
                  ],
                  "code": {
                    "coding": [
                      {
                        "system": "http://snomed.info/sct",
                        "code": "116288000",
                        "display": "Paralytic stroke (disorder)"
                      }
                    ]
                  },
                  "subject": {
                    "reference": "Patient/numer-EXM104-FHIR4"
                  }
                }
              },
              {
                "fullUrl": "Patient/numer-EXM104-FHIR4",
                "resource": {
                  "resourceType": "Patient",
                  "id": "numer-EXM104-FHIR4",
                  "meta": {
                    "versionId": "1",
                    "lastUpdated": "2019-12-31T10:18:59.599-07:00",
                    "profile": [
                      "http://hl7.org/fhir/us/core/StructureDefinition/us-core-patient"
                    ]
                  },
                  "text": {
                    "status": "generated",
                    "div": "<div xmlns=\"http://www.w3.org/1999/xhtml\"><div class=\"hapiHeaderText\">Louise <b>JONES </b></div><table class=\"hapiPropertyTable\"><tbody><tr><td>Identifier</td><td>9999999911</td></tr><tr><td>Date of birth</td><td><span>21 November 1971</span></td></tr></tbody></table></div>"
                  },
                  "extension": [
                    {
                      "url": "http://hl7.org/fhir/us/core/StructureDefinition/us-core-race",
                      "extension": [
                        {
                          "url": "ombCategory",
                          "valueCoding": {
                            "system": "urn:oid:2.16.840.1.113883.6.238",
                            "code": "2106-3",
                            "display": "White"
                          }
                        }
                      ]
                    },
                    {
                      "url": "http://hl7.org/fhir/us/core/StructureDefinition/us-core-ethnicity",
                      "extension": [
                        {
                          "url": "ombCategory",
                          "valueCoding": {
                            "system": "urn:oid:2.16.840.1.113883.6.238",
                            "code": "2186-5",
                            "display": "Not Hispanic or Latino"
                          }
                        }
                      ]
                    }
                  ],
                  "identifier": [
                    {
                      "use": "usual",
                      "type": {
                        "coding": [
                          {
                            "system": "http://terminology.hl7.org/CodeSystem/v2-0203",
                            "code": "MR",
                            "display": "Medical Record Number"
                          }
                        ]
                      },
                      "system": "http://hospital.smarthealthit.org",
                      "value": "9999999911"
                    }
                  ],
                  "name": [
                    {
                      "family": "Jones",
                      "given": [
                        "Louise"
                      ]
                    }
                  ],
                  "gender": "female",
                  "birthDate": "1971-11-21"
                }
              },
              {
                "fullUrl": "40eea734-263e-4565-b7fd-adb1ce15ddcc",
                "resource": {
                  "resourceType": "List",
                  "id": "40eea734-263e-4565-b7fd-adb1ce15ddcc",
                  "title": "initial-population",
                  "entry": [
                    {
                      "item": {
                        "reference": "#Condition/numer-EXM104-FHIR4-1"
                      }
                    },
                    {
                      "item": {
                        "reference": "#Patient/numer-EXM104-FHIR4"
                      }
                    },
                    {
                      "item": {
                        "reference": "#Encounter/numer-EXM104-FHIR4-2"
                      }
                    }
                  ]
                }
              },
              {
                "fullUrl": "fb8067e5-ce35-4809-a44a-d1a0b6bd0313",
                "resource": {
                  "resourceType": "List",
                  "id": "fb8067e5-ce35-4809-a44a-d1a0b6bd0313",
                  "title": "denominator",
                  "entry": [
                    {
                      "item": {
                        "reference": "#Condition/numer-EXM104-FHIR4-1"
                      }
                    }
                  ]
                }
              },
              {
                "fullUrl": "MedicationRequest/numer-EXM104-FHIR4-5",
                "resource": {
                  "resourceType": "MedicationRequest",
                  "id": "numer-EXM104-FHIR4-5",
                  "meta": {
                    "versionId": "4",
                    "lastUpdated": "2019-12-31T13:26:26.805-07:00"
                  },
                  "status": "completed",
                  "intent": "order",
                  "category": [
                    {
                      "coding": [
                        {
                          "system": "http://terminology.hl7.org/CodeSystem/medicationrequest-category",
                          "code": "discharge",
                          "display": "Discharge"
                        }
                      ]
                    }
                  ],
                  "medicationCodeableConcept": {
                    "coding": [
                      {
                        "system": "http://www.nlm.nih.gov/research/umls/rxnorm",
                        "code": "1037045",
                        "display": "dabigatran etexilate 150 MG Oral Capsule"
                      }
                    ]
                  },
                  "subject": {
                    "reference": "Patient/numer-EXM104-FHIR4"
                  },
                  "authoredOn": "2019-12-17T08:00:00"
                }
              },
              {
                "fullUrl": "Encounter/numer-EXM104-FHIR4-2",
                "resource": {
                  "resourceType": "Encounter",
                  "id": "numer-EXM104-FHIR4-2",
                  "meta": {
                    "versionId": "5",
                    "lastUpdated": "2019-12-31T13:26:27.523-07:00",
                    "profile": [
                      "http://hl7.org/fhir/us/core/StructureDefinition/us-core-encounter"
                    ]
                  },
                  "status": "finished",
                  "class": {
                    "system": "http://terminology.hl7.org/CodeSystem/v3-ActCode",
                    "code": "IMP",
                    "display": "inpatient encounter"
                  },
                  "type": [
                    {
                      "coding": [
                        {
                          "system": "http://snomed.info/sct",
                          "code": "32485007",
                          "display": "Hospital admission (procedure)"
                        }
                      ]
                    }
                  ],
                  "subject": {
                    "reference": "Patient/numer-EXM104-FHIR4"
                  },
                  "period": {
                    "start": "2019-08-21T00:00:00-06:00",
                    "end": "2019-12-19T08:15:00-07:00"
                  },
                  "diagnosis": [
                    {
                      "condition": {
                        "reference": "Condition/numer-EXM104-FHIR4-1"
                      },
                      "use": {
                        "coding": [
                          {
                            "system": "http://hl7.org/fhir/diagnosis-role",
                            "code": "billing",
                            "display": "Billing"
                          }
                        ]
                      },
                      "rank": 1
                    }
                  ]
                }
              },
              {
                "fullUrl": "03cf31b8-f8dc-48a2-a09a-62b6eb1e8e30",
                "resource": {
                  "resourceType": "List",
                  "id": "03cf31b8-f8dc-48a2-a09a-62b6eb1e8e30",
                  "title": "numerator",
                  "entry": [
                    {
                      "item": {
                        "reference": "#MedicationRequest/numer-EXM104-FHIR4-5"
                      }
                    }
                  ]
                }
              }
            ]
          }
        ],
        "status": "complete",
        "type": "individual",
        "measure": "Measure/measure-EXM104-FHIR4-8.1.000",
        "subject": {
          "reference": "Patient/numer-EXM104-FHIR4"
        },
        "period": {
          "start": "2019-01-01T00:00:00-07:00",
          "end": "2019-12-31T00:00:00-07:00"
        },
        "group": [
          {
            "id": "group-1",
            "population": [
              {
                "code": {
                  "coding": [
                    {
                      "system": "http://terminology.hl7.org/CodeSystem/measure-population",
                      "code": "initial-population",
                      "display": "Initial Population"
                    }
                  ]
                },
                "count": 1
              },
              {
                "code": {
                  "coding": [
                    {
                      "system": "http://terminology.hl7.org/CodeSystem/measure-population",
                      "code": "numerator",
                      "display": "Numerator"
                    }
                  ]
                },
                "count": 1
              },
              {
                "code": {
                  "coding": [
                    {
                      "system": "http://terminology.hl7.org/CodeSystem/measure-population",
                      "code": "denominator",
                      "display": "Denominator"
                    }
                  ]
                },
                "count": 1
              },
              {
                "code": {
                  "coding": [
                    {
                      "system": "http://terminology.hl7.org/CodeSystem/measure-population",
                      "code": "denominator-exclusion",
                      "display": "Denominator Exclusion"
                    }
                  ]
                },
                "count": 0
              }
            ],
            "measureScore": {
              "value": 1.0
            }
          }
        ],
        "evaluatedResource": [
          {
            "reference": "#e1766328-68d5-4cd8-8233-7710c7b6c3a0"
          }
        ]
      },
      "request": {
        "method": "PUT",
        "url": "MeasureReport/measurereport-numer-EXM104-FHIR4"
      }
    },
    {
      "resource": {
        "resourceType": "MedicationRequest",
        "id": "numer-EXM104-FHIR4-5",
        "status": "completed",
        "intent": "order",
        "category": [
          {
            "coding": [
              {
                "system": "http://terminology.hl7.org/CodeSystem/medicationrequest-category",
                "code": "discharge",
                "display": "Discharge"
              }
            ]
          }
        ],
        "medicationCodeableConcept": {
          "coding": [
            {
              "system": "http://www.nlm.nih.gov/research/umls/rxnorm",
              "code": "1037045",
              "display": "dabigatran etexilate 150 MG Oral Capsule"
            }
          ]
        },
        "subject": {
          "reference": "Patient/numer-EXM104-FHIR4"
        },
        "authoredOn": "2019-12-17T08:00:00"
      },
      "request": {
        "method": "PUT",
        "url": "MedicationRequest/numer-EXM104-FHIR4-5"
      }
    },
    {
      "resource": {
        "resourceType": "Patient",
        "id": "numer-EXM104-FHIR4",
        "meta": {
          "profile": [
            "http://hl7.org/fhir/us/core/StructureDefinition/us-core-patient"
          ]
        },
        "extension": [
          {
            "url": "http://hl7.org/fhir/us/core/StructureDefinition/us-core-race",
            "extension": [
              {
                "url": "ombCategory",
                "valueCoding": {
                  "system": "urn:oid:2.16.840.1.113883.6.238",
                  "code": "2106-3",
                  "display": "White"
                }
              }
            ]
          },
          {
            "url": "http://hl7.org/fhir/us/core/StructureDefinition/us-core-ethnicity",
            "extension": [
              {
                "url": "ombCategory",
                "valueCoding": {
                  "system": "urn:oid:2.16.840.1.113883.6.238",
                  "code": "2186-5",
                  "display": "Not Hispanic or Latino"
                }
              }
            ]
          }
        ],
        "identifier": [
          {
            "use": "usual",
            "type": {
              "coding": [
                {
                  "system": "http://terminology.hl7.org/CodeSystem/v2-0203",
                  "code": "MR",
                  "display": "Medical Record Number"
                }
              ]
            },
            "system": "http://hospital.smarthealthit.org",
            "value": "9999999911"
          }
        ],
        "name": [
          {
            "family": "Jones",
            "given": [
              "Louise"
            ]
          }
        ],
        "gender": "female",
        "birthDate": "1971-11-21"
      },
      "request": {
        "method": "PUT",
        "url": "Patient/numer-EXM104-FHIR4"
      }
    }
  ]
}