{
  "resourceType": "MeasureReport",
  "contained": [
    {
      "resourceType": "Bundle",
      "id": "39b8b4d6-99a4-4c51-85f3-17f1a2ff0e14",
      "type": "collection",
      "entry": [
        {
          "fullUrl": "Condition/bc4159a4-6ff2-4a5b-be3a-d9c4778642c2-2/_history/1",
          "resource": {
            "resourceType": "Condition",
            "id": "bc4159a4-6ff2-4a5b-be3a-d9c4778642c2-2",
            "meta": {
              "versionId": "1",
              "lastUpdated": "2019-09-14T14:15:05.548+00:00",
              "profile": [
                "http://hl7.org/fhir/us/core/StructureDefinition/us-core-condition"
              ]
            },
            "verificationStatus": "confirmed",
            "category": [
              {
                "coding": [
                  {
                    "system": "http://terminology.hl7.org/CodeSystem/condition-category",
                    "code": "encounter-diagnosis",
                    "display": "Encounter Diagnosis"
                  }
                ]
              }
            ],
            "code": {
              "coding": [
                {
                  "system": "http://snomed.info/sct",
                  "code": "65518004",
                  "display": "Labile diastolic hypertension (disorder)"
                }
              ]
            },
            "subject": {
              "reference": "Patient/bc4159a4-6ff2-4a5b-be3a-d9c4778642c2-1"
            },
            "assertedDate": "2019-01-12T13:51:21-07:00"
          }
        },
        {
          "fullUrl": "Patient/bc4159a4-6ff2-4a5b-be3a-d9c4778642c2-1/_history/1",
          "resource": {
            "resourceType": "Patient",
            "id": "bc4159a4-6ff2-4a5b-be3a-d9c4778642c2-1",
            "meta": {
              "versionId": "1",
              "lastUpdated": "2019-09-14T14:15:05.548+00:00",
              "profile": [
                "http://hl7.org/fhir/us/core/StructureDefinition/us-core-patient"
              ]
            },
            "text": {
              "status": "generated",
              "div": "<div xmlns=\"http://www.w3.org/1999/xhtml\"><div class=\"hapiHeaderText\">Jill <b>DOE </b></div><table class=\"hapiPropertyTable\"><tbody><tr><td>Identifier</td><td>999999993</td></tr><tr><td>Date of birth</td><td><span>25 August 1975</span></td></tr></tbody></table></div>"
            },
            "extension": [
              {
                "url": "http://hl7.org/fhir/us/core/StructureDefinition/us-core-race",
                "extension": [
                  {
                    "url": "ombCategory",
                    "valueCoding": {
                      "system": "urn:oid:2.16.840.1.113883.6.238",
                      "code": "2054-5",
                      "display": "Black or African American"
                    }
                  }
                ]
              },
              {
                "url": "http://hl7.org/fhir/us/core/StructureDefinition/us-core-ethnicity",
                "extension": [
                  {
                    "url": "ombCategory",
                    "valueCoding": {
                      "system": "urn:oid:2.16.840.1.113883.6.238",
                      "code": "2186-5",
                      "display": "Not Hispanic or Latino"
                    }
                  }
                ]
              }
            ],
            "identifier": [
              {
                "use": "usual",
                "type": {
                  "coding": [
                    {
                      "system": "http://terminology.hl7.org/CodeSystem/v2-0203",
                      "code": "MR",
                      "display": "Medical Record Number"
                    }
                  ]
                },
                "system": "http://hospital.smarthealthit.org",
                "value": "999999993"
              }
            ],
            "name": [
              {
                "family": "Doe",
                "given": [
                  "Jill"
                ]
              }
            ],
            "gender": "female",
            "birthDate": "1975-08-25"
          }
        },
        {
          "fullUrl": "fdc4ca0f-4f49-4a64-b150-e3161355b4e7",
          "resource": {
            "resourceType": "List",
            "id": "fdc4ca0f-4f49-4a64-b150-e3161355b4e7",
            "title": "initial-population",
            "entry": [
              {
                "item": {
                  "reference": "#Condition/bc4159a4-6ff2-4a5b-be3a-d9c4778642c2-2/_history/1"
                }
              },
              {
                "item": {
                  "reference": "#Patient/bc4159a4-6ff2-4a5b-be3a-d9c4778642c2-1/_history/1"
                }
              }
            ]
          }
        }
      ]
    }
  ],
  "status": "complete",
  "type": "individual",
  "measure": {
    "reference": "Measure/measure-exm165-FHIR3"
  },
  "patient": {
    "reference": "Patient/bc4159a4-6ff2-4a5b-be3a-d9c4778642c2-1"
  },
  "period": {
    "start": "2019-01-01T00:00:00+00:00",
    "end": "2019-12-31T00:00:00+00:00"
  },
  "group": [
    {
      "identifier": {
        "value": "group-1"
      },
      "population": [
        {
          "identifier": {
            "value": "initial-population-identifier"
          },
          "code": {
            "coding": [
              {
                "system": "http://terminology.hl7.org/CodeSystem/measure-population",
                "code": "initial-population",
                "display": "Initial Population"
              }
            ]
          },
          "count": 0
        },
        {
          "identifier": {
            "value": "numerator-identifier"
          },
          "code": {
            "coding": [
              {
                "system": "http://terminology.hl7.org/CodeSystem/measure-population",
                "code": "numerator",
                "display": "Numerator"
              }
            ]
          },
          "count": 0
        },
        {
          "identifier": {
            "value": "denominator-identifier"
          },
          "code": {
            "coding": [
              {
                "system": "http://terminology.hl7.org/CodeSystem/measure-population",
                "code": "denominator",
                "display": "Denominator"
              }
            ]
          },
          "count": 0
        },
        {
          "identifier": {
            "value": "denominator-exclusions-identifier"
          },
          "code": {
            "coding": [
              {
                "system": "http://terminology.hl7.org/CodeSystem/measure-population",
                "code": "denominator-exclusion",
                "display": "Denominator Exclusion"
              }
            ]
          },
          "count": 0
        }
      ]
    }
  ],
  "evaluatedResources": {
    "reference": "#39b8b4d6-99a4-4c51-85f3-17f1a2ff0e14"
  }
}