{
  "resourceType": "MeasureReport",
  "contained": [
    {
      "resourceType": "Bundle",
      "id": "635e6a38-c5aa-4743-9f6f-14b80f80dcb6",
      "type": "collection",
      "entry": [
        {
          "fullUrl": "Patient/f4bd2b01-bf58-494b-85be-842e4961a3a5-1/_history/1",
          "resource": {
            "resourceType": "Patient",
            "id": "f4bd2b01-bf58-494b-85be-842e4961a3a5-1",
            "meta": {
              "versionId": "1",
              "lastUpdated": "2019-09-14T14:15:05.548+00:00",
              "profile": [
                "http://hl7.org/fhir/us/core/StructureDefinition/us-core-patient"
              ]
            },
            "text": {
              "status": "generated",
              "div": "<div xmlns=\"http://www.w3.org/1999/xhtml\"><div class=\"hapiHeaderText\">Rick <b>JONES </b></div><table class=\"hapiPropertyTable\"><tbody><tr><td>Identifier</td><td>999999992</td></tr><tr><td>Date of birth</td><td><span>26 April 1976</span></td></tr></tbody></table></div>"
            },
            "extension": [
              {
                "url": "http://hl7.org/fhir/us/core/StructureDefinition/us-core-race",
                "extension": [
                  {
                    "url": "ombCategory",
                    "valueCoding": {
                      "system": "urn:oid:2.16.840.1.113883.6.238",
                      "code": "2106-3",
                      "display": "White"
                    }
                  }
                ]
              },
              {
                "url": "http://hl7.org/fhir/us/core/StructureDefinition/us-core-ethnicity",
                "extension": [
                  {
                    "url": "ombCategory",
                    "valueCoding": {
                      "system": "urn:oid:2.16.840.1.113883.6.238",
                      "code": "2186-5",
                      "display": "Not Hispanic or Latino"
                    }
                  }
                ]
              }
            ],
            "identifier": [
              {
                "use": "usual",
                "type": {
                  "coding": [
                    {
                      "system": "http://terminology.hl7.org/CodeSystem/v2-0203",
                      "code": "MR",
                      "display": "Medical Record Number"
                    }
                  ]
                },
                "system": "http://hospital.smarthealthit.org",
                "value": "999999992"
              }
            ],
            "name": [
              {
                "family": "Jones",
                "given": [
                  "Rick"
                ]
              }
            ],
            "gender": "male",
            "birthDate": "1976-04-26"
          }
        },
        {
          "fullUrl": "eb2c5c2f-f359-4329-9a3b-17dcb14742e9",
          "resource": {
            "resourceType": "List",
            "id": "eb2c5c2f-f359-4329-9a3b-17dcb14742e9",
            "title": "initial-population",
            "entry": [
              {
                "item": {
                  "reference": "#Patient/f4bd2b01-bf58-494b-85be-842e4961a3a5-1/_history/1"
                }
              },
              {
                "item": {
                  "reference": "#Condition/f4bd2b01-bf58-494b-85be-842e4961a3a5-2/_history/1"
                }
              }
            ]
          }
        },
        {
          "fullUrl": "Condition/f4bd2b01-bf58-494b-85be-842e4961a3a5-2/_history/1",
          "resource": {
            "resourceType": "Condition",
            "id": "f4bd2b01-bf58-494b-85be-842e4961a3a5-2",
            "meta": {
              "versionId": "1",
              "lastUpdated": "2019-09-14T14:15:05.548+00:00",
              "profile": [
                "http://hl7.org/fhir/us/core/StructureDefinition/us-core-condition"
              ]
            },
            "verificationStatus": "confirmed",
            "category": [
              {
                "coding": [
                  {
                    "system": "http://terminology.hl7.org/CodeSystem/condition-category",
                    "code": "encounter-diagnosis",
                    "display": "Encounter Diagnosis"
                  }
                ]
              }
            ],
            "code": {
              "coding": [
                {
                  "system": "http://snomed.info/sct",
                  "code": "59621000",
                  "display": "Essential hypertension (disorder)"
                }
              ]
            },
            "subject": {
              "reference": "Patient/f4bd2b01-bf58-494b-85be-842e4961a3a5-1"
            },
            "assertedDate": "2019-04-16T13:51:21-06:00"
          }
        }
      ]
    }
  ],
  "status": "complete",
  "type": "individual",
  "measure": {
    "reference": "Measure/measure-exm165-FHIR3"
  },
  "patient": {
    "reference": "Patient/f4bd2b01-bf58-494b-85be-842e4961a3a5-1"
  },
  "period": {
    "start": "2019-01-01T00:00:00+00:00",
    "end": "2019-12-31T00:00:00+00:00"
  },
  "group": [
    {
      "identifier": {
        "value": "group-1"
      },
      "population": [
        {
          "identifier": {
            "value": "initial-population-identifier"
          },
          "code": {
            "coding": [
              {
                "system": "http://terminology.hl7.org/CodeSystem/measure-population",
                "code": "initial-population",
                "display": "Initial Population"
              }
            ]
          },
          "count": 0
        },
        {
          "identifier": {
            "value": "numerator-identifier"
          },
          "code": {
            "coding": [
              {
                "system": "http://terminology.hl7.org/CodeSystem/measure-population",
                "code": "numerator",
                "display": "Numerator"
              }
            ]
          },
          "count": 0
        },
        {
          "identifier": {
            "value": "denominator-identifier"
          },
          "code": {
            "coding": [
              {
                "system": "http://terminology.hl7.org/CodeSystem/measure-population",
                "code": "denominator",
                "display": "Denominator"
              }
            ]
          },
          "count": 0
        },
        {
          "identifier": {
            "value": "denominator-exclusions-identifier"
          },
          "code": {
            "coding": [
              {
                "system": "http://terminology.hl7.org/CodeSystem/measure-population",
                "code": "denominator-exclusion",
                "display": "Denominator Exclusion"
              }
            ]
          },
          "count": 0
        }
      ]
    }
  ],
  "evaluatedResources": {
    "reference": "#635e6a38-c5aa-4743-9f6f-14b80f80dcb6"
  }
}