{
  "resourceType": "Bundle",
  "id": "EXM161-FHIR3-8.0.0-bundle",
  "type": "transaction",
  "entry": [
    {
      "resource": {
        "resourceType": "ValueSet",
        "id": "2.16.840.1.114222.4.11.836",
        "url": "http://cts.nlm.nih.gov/fhir/ValueSet/2.16.840.1.114222.4.11.836",
        "identifier": [
          {
            "system": "urn:ietf:rfc:3986",
            "value": "2.16.840.1.114222.4.11.836"
          }
        ],
        "version": "20121025",
        "name": "Race",
        "title": "Race",
        "status": "active",
        "publisher": "NLM",
        "compose": {
          "include": [
            {
              "system": "http://www.cdc.gov/phin/resources/vocabulary/index.html",
              "version": "1.2",
              "concept": [
                {
                  "code": "1002-5",
                  "display": "American Indian or Alaska Native"
                },
                {
                  "code": "2028-9",
                  "display": "Asian"
                },
                {
                  "code": "2054-5",
                  "display": "Black or African American"
                },
                {
                  "code": "2076-8",
                  "display": "Native Hawaiian or Other Pacific Islander"
                },
                {
                  "code": "2106-3",
                  "display": "White"
                },
                {
                  "code": "2131-1",
                  "display": "Other Race"
                }
              ]
            }
          ]
        }
      },
      "request": {
        "method": "PUT",
        "url": "ValueSet/2.16.840.1.114222.4.11.836"
      }
    },
    {
      "resource": {
        "resourceType": "ValueSet",
        "id": "2.16.840.1.114222.4.11.837",
        "url": "http://cts.nlm.nih.gov/fhir/ValueSet/2.16.840.1.114222.4.11.837",
        "identifier": [
          {
            "system": "urn:ietf:rfc:3986",
            "value": "2.16.840.1.114222.4.11.837"
          }
        ],
        "version": "20121025",
        "name": "Ethnicity",
        "title": "Ethnicity",
        "status": "active",
        "publisher": "NLM",
        "compose": {
          "include": [
            {
              "system": "http://www.cdc.gov/phin/resources/vocabulary/index.html",
              "version": "1.2",
              "concept": [
                {
                  "code": "2135-2",
                  "display": "Hispanic or Latino"
                },
                {
                  "code": "2186-5",
                  "display": "Not Hispanic or Latino"
                }
              ]
            }
          ]
        }
      },
      "request": {
        "method": "PUT",
        "url": "ValueSet/2.16.840.1.114222.4.11.837"
      }
    },
    {
      "resource": {
        "resourceType": "ValueSet",
        "id": "2.16.840.1.113883.3.464.1003.101.12.1010",
        "url": "http://cts.nlm.nih.gov/fhir/ValueSet/2.16.840.1.113883.3.464.1003.101.12.1010",
        "identifier": [
          {
            "system": "urn:ietf:rfc:3986",
            "value": "2.16.840.1.113883.3.464.1003.101.12.1010"
          }
        ],
        "version": "20180310",
        "name": "EmergencyDepartmentVisit",
        "title": "Emergency Department Visit",
        "status": "active",
        "publisher": "NLM",
        "compose": {
          "include": [
            {
              "system": "http://www.ama-assn.org/go/cpt",
              "version": "2018",
              "concept": [
                {
                  "code": "99281",
                  "display": "Emergency department visit for the evaluation and management of a patient, which requires these 3 key components: A problem focused history; A problem focused examination; and Straightforward medical decision making. Counseling and/or coordination of care with other physicians, other qualified health care professionals, or agencies are provided consistent with the nature of the problem(s) and the patient's and/or family's needs. Usually, the presenting problem(s) are self limited or minor."
                },
                {
                  "code": "99282",
                  "display": "Emergency department visit for the evaluation and management of a patient, which requires these 3 key components: An expanded problem focused history; An expanded problem focused examination; and Medical decision making of low complexity. Counseling and/or coordination of care with other physicians, other qualified health care professionals, or agencies are provided consistent with the nature of the problem(s) and the patient's and/or family's needs. Usually, the presenting problem(s) are of low to moderate severity."
                },
                {
                  "code": "99283",
                  "display": "Emergency department visit for the evaluation and management of a patient, which requires these 3 key components: An expanded problem focused history; An expanded problem focused examination; and Medical decision making of moderate complexity. Counseling and/or coordination of care with other physicians, other qualified health care professionals, or agencies are provided consistent with the nature of the problem(s) and the patient's and/or family's needs. Usually, the presenting problem(s) are of moderate severity."
                },
                {
                  "code": "99284",
                  "display": "Emergency department visit for the evaluation and management of a patient, which requires these 3 key components: A detailed history; A detailed examination; and Medical decision making of moderate complexity. Counseling and/or coordination of care with other physicians, other qualified health care professionals, or agencies are provided consistent with the nature of the problem(s) and the patient's and/or family's needs. Usually, the presenting problem(s) are of high severity, and require urgent evaluation by the physician, or other qualified health care professionals but do not pose an immediate significant threat to life or physiologic function."
                },
                {
                  "code": "99285",
                  "display": "Emergency department visit for the evaluation and management of a patient, which requires these 3 key components within the constraints imposed by the urgency of the patient's clinical condition and/or mental status: A comprehensive history; A comprehensive examination; and Medical decision making of high complexity. Counseling and/or coordination of care with other physicians, other qualified health care professionals, or agencies are provided consistent with the nature of the problem(s) and the patient's and/or family's needs. Usually, the presenting problem(s) are of high severity and pose an immediate significant threat to life or physiologic function."
                }
              ]
            },
            {
              "system": "http://snomed.info/sct",
              "version": "2018-03",
              "concept": [
                {
                  "code": "4525004",
                  "display": "Emergency department patient visit (procedure)"
                }
              ]
            }
          ]
        }
      },
      "request": {
        "method": "PUT",
        "url": "ValueSet/2.16.840.1.113883.3.464.1003.101.12.1010"
      }
    },
    {
      "resource": {
        "resourceType": "Library",
        "id": "library-MATGlobalCommonFunctions-FHIR3-4.0.000",
        "text": {
          "status": "generated",
          "div": "<div xmlns=\"http://www.w3.org/1999/xhtml\"><table class=\"grid dict\"><tr><th scope=\"row\"><b>Id: </b></th><td style=\"padding-left: 25px; padding-right: 25px;\">library-MATGlobalCommonFunctions-FHIR3-4.0.000</td></tr><tr><th scope=\"row\"><b>Type: </b></th><td style=\"padding-right: 25px;\"> logic-library </td></tr><tr><th scope=\"row\"><b>Version: </b></th><td style=\"padding-left: 25px; padding-right: 25px;\">4.0.000</td></tr><tr><th scope=\"row\"><b>Status: </b></th><td style=\"padding-left: 25px; padding-right: 25px;\">active</td></tr><tr style=\"vertical-align: top;\"><th rowspan=\"1\" scope=\"row\"><b>Related: </b></th><td style=\"padding-left: 25px; padding-right: 25px;\"><p style=\"margin-bottom: 5px;\"><b>type: </b><span>depends-on</span></p><p style=\"margin-bottom: 5px;\"><b>Resource: </b><br/><span>org.hl7.fhir.dstu3.model.Reference@3c406e55</span></p></td></tr><tr style=\"vertical-align: top;\"><th rowspan=\"9\" scope=\"row\"><b>Data Requirements: </b></th><td style=\"padding-left: 25px; padding-right: 25px;\"><div xmlns=\"http://www.w3.org/1999/xhtml\"><p style=\"margin-bottom: 5px;\"><b>type: </b><span>Encounter</span></p><p style=\"margin-bottom: 5px;\"><b>code filter:</b><br/><span style=\"padding-left: 25px;\"><b>path: </b><span>type</span></span><br/><span style=\"padding-left: 25px;\"><b>valueset: </b><span>http://cts.nlm.nih.gov/fhir/ValueSet/2.16.840.1.113883.3.666.5.307</span></span></p></div></td></tr><tr style=\"vertical-align: top;\"><td style=\"padding-left: 25px; padding-right: 25px;\"><div xmlns=\"http://www.w3.org/1999/xhtml\"><p style=\"margin-bottom: 5px;\"><b>type: </b><span>Encounter</span></p><p style=\"margin-bottom: 5px;\"><b>code filter:</b><br/><span style=\"padding-left: 25px;\"><b>path: </b><span>type</span></span><br/><span style=\"padding-left: 25px;\"><b>valueset: </b><span>http://cts.nlm.nih.gov/fhir/ValueSet/2.16.840.1.113883.3.117.1.7.1.292</span></span></p></div></td></tr><tr style=\"vertical-align: top;\"><td style=\"padding-left: 25px; padding-right: 25px;\"><div xmlns=\"http://www.w3.org/1999/xhtml\"><p style=\"margin-bottom: 5px;\"><b>type: </b><span>Encounter</span></p><p style=\"margin-bottom: 5px;\"><b>code filter:</b><br/><span style=\"padding-left: 25px;\"><b>path: </b><span>type</span></span><br/><span style=\"padding-left: 25px;\"><b>valueset: </b><span>http://cts.nlm.nih.gov/fhir/ValueSet/2.16.840.1.113762.1.4.1111.143</span></span></p></div></td></tr><tr style=\"vertical-align: top;\"><td style=\"padding-left: 25px; padding-right: 25px;\"><div xmlns=\"http://www.w3.org/1999/xhtml\"><p style=\"margin-bottom: 5px;\"><b>type: </b><span>Encounter</span></p><p style=\"margin-bottom: 5px;\"><b>code filter:</b><br/><span style=\"padding-left: 25px;\"><b>path: </b><span>type</span></span><br/><span style=\"padding-left: 25px;\"><b>valueset: </b><span>http://cts.nlm.nih.gov/fhir/ValueSet/2.16.840.1.113883.3.117.1.7.1.292</span></span></p></div></td></tr><tr style=\"vertical-align: top;\"><td style=\"padding-left: 25px; padding-right: 25px;\"><div xmlns=\"http://www.w3.org/1999/xhtml\"><p style=\"margin-bottom: 5px;\"><b>type: </b><span>Condition</span></p></div></td></tr><tr style=\"vertical-align: top;\"><td style=\"padding-left: 25px; padding-right: 25px;\"><div xmlns=\"http://www.w3.org/1999/xhtml\"><p style=\"margin-bottom: 5px;\"><b>type: </b><span>Condition</span></p></div></td></tr><tr style=\"vertical-align: top;\"><td style=\"padding-left: 25px; padding-right: 25px;\"><div xmlns=\"http://www.w3.org/1999/xhtml\"><p style=\"margin-bottom: 5px;\"><b>type: </b><span>Location</span></p></div></td></tr><tr style=\"vertical-align: top;\"><td style=\"padding-left: 25px; padding-right: 25px;\"><div xmlns=\"http://www.w3.org/1999/xhtml\"><p style=\"margin-bottom: 5px;\"><b>type: </b><span>Provenance</span></p><p style=\"margin-bottom: 5px;\"><b>code filter:</b><br/><span style=\"padding-left: 25px;\"><b>path: </b><span>target</span></span></p></div></td></tr><tr style=\"vertical-align: top;\"><td style=\"padding-left: 25px; padding-right: 25px;\"><div xmlns=\"http://www.w3.org/1999/xhtml\"><p style=\"margin-bottom: 5px;\"><b>type: </b><span>Medication</span></p><p style=\"margin-bottom: 5px;\"><b>code filter:</b><br/><span style=\"padding-left: 25px;\"><b>path: </b><span>id</span></span></p></div></td></tr><tr style=\"vertical-align: top;\"><th scope=\"row\"><b>Content: </b></th><td style=\"padding-left: 25px; padding-right: 25px;\"><b>type: </b><span>text/cql</span></td></tr><tr><td colspan=\"2\" style=\"padding-left: 25px; padding-right: 25px;\"><pre><code class=\"language-cql\">library MATGlobalCommonFunctions_FHIR3 version '4.0.000'\n\n/*\nThis example is a work in progress and should not be considered a final specification\nor recommendation for guidance. This example will help guide and direct the process\nof finding conventions and usage patterns that meet the needs of the various stakeholders\nin the measure development community.\n*/\n\nusing FHIR version '3.0.0'\n\ninclude FHIRHelpers version '3.0.0' called FHIRHelpers\n\ncodesystem \"LOINC\": 'http://loinc.org'\ncodesystem \"SNOMEDCT\": 'http://snomed.info/sct/731000124108'\ncodesystem \"RoleCode\": 'http://hl7.org/fhir/v3/RoleCode'\ncodesystem \"Diagnosis Role\": 'http://hl7.org/fhir/diagnosis-role'\n\nvalueset \"Encounter Inpatient\": 'http://cts.nlm.nih.gov/fhir/ValueSet/2.16.840.1.113883.3.666.5.307'\nvalueset \"Emergency Department Visit\": 'http://cts.nlm.nih.gov/fhir/ValueSet/2.16.840.1.113883.3.117.1.7.1.292'\nvalueset \"Observation Services\": 'http://cts.nlm.nih.gov/fhir/ValueSet/2.16.840.1.113762.1.4.1111.143'\n\ncode \"Birthdate\": '21112-8' from \"LOINC\" display 'Birth date'\ncode \"Dead\": '419099009' from \"SNOMEDCT\" display 'Dead'\ncode \"ER\": 'ER' from \"RoleCode\" display 'Emergency room'\ncode \"ICU\": 'ICU' from \"RoleCode\" display 'Intensive care unit'\ncode \"Billing\": 'billing' from \"Diagnosis Role\" display 'Billing'\n\nparameter \"Measurement Period\" Interval&lt;DateTime&gt;\n\ncontext Patient\n\ndefine \"Inpatient Encounter\":\n\t[Encounter: \"Encounter Inpatient\"] EncounterInpatient\n\t\twhere EncounterInpatient.status = 'finished'\n\t\t  and \"LengthInDays\"(EncounterInpatient.period) &lt;= 120\n\t\t\tand EncounterInpatient.period ends during \"Measurement Period\"\n\ndefine function \"ToDate\"(Value DateTime):\n\tDateTime(year from Value, month from Value, day from Value, 0, 0, 0, 0, timezone from Value)\n\ndefine function \"CalendarAgeInDaysAt\"(BirthDateTime DateTime, AsOf DateTime):\n\tdays between ToDate(BirthDateTime)and ToDate(AsOf)\n\ndefine function \"CalendarAgeInDays\"(BirthDateTime DateTime):\n\tCalendarAgeInDaysAt(BirthDateTime, Today())\n\ndefine function \"CalendarAgeInMonthsAt\"(BirthDateTime DateTime, AsOf DateTime):\n\tmonths between ToDate(BirthDateTime)and ToDate(AsOf)\n\ndefine function \"CalendarAgeInMonths\"(BirthDateTime DateTime):\n\tCalendarAgeInMonthsAt(BirthDateTime, Today())\n\ndefine function \"CalendarAgeInYearsAt\"(BirthDateTime DateTime, AsOf DateTime):\n\tyears between ToDate(BirthDateTime)and ToDate(AsOf)\n\ndefine function \"CalendarAgeInYears\"(BirthDateTime DateTime):\n\tCalendarAgeInYearsAt(BirthDateTime, Today())\n\ndefine function \"LengthInDays\"(Value Interval&lt;DateTime&gt;):\n\tdifference in days between start of Value and end of Value\n\ndefine function \"ED Visit\"(TheEncounter FHIR.Encounter):\n    singleton from (\n        [Encounter: \"Emergency Department Visit\"] EDVisit\n            where EDVisit.status = 'finished'\n                and EDVisit.period ends 1 hour or less on or before start of FHIRHelpers.ToInterval(TheEncounter.period)\n    )\n\ndefine function \"Hospitalization\"(TheEncounter FHIR.Encounter):\n\t( \"ED Visit\"(TheEncounter) ) X\n    return\n        if X is null then TheEncounter.period\n        else Interval[start of FHIRHelpers.ToInterval(X.period), end of FHIRHelpers.ToInterval(TheEncounter.period)]\n\ndefine function \"Hospitalization Locations\"(TheEncounter FHIR.Encounter):\n\t( \"ED Visit\"(TheEncounter) ) EDEncounter\n    return\n        if EDEncounter is null then TheEncounter.location\n        else flatten { EDEncounter.location, TheEncounter.location }\n\ndefine function \"Hospitalization Length of Stay\"(TheEncounter FHIR.Encounter):\n\tLengthInDays(\"Hospitalization\"(TheEncounter))\n\ndefine function \"Hospital Admission Time\"(TheEncounter FHIR.Encounter):\n\tstart of \"Hospitalization\"(TheEncounter)\n\ndefine function \"Hospital Discharge Time\"(TheEncounter FHIR.Encounter):\n\tend of FHIRHelpers.ToInterval(TheEncounter.period)\n\ndefine function \"Hospital Arrival Time\"(TheEncounter FHIR.Encounter):\n\tstart of FHIRHelpers.ToInterval(First(\n\t    ( \"Hospitalization Locations\"(TheEncounter) ) HospitalLocation\n\t\t\tsort by start of FHIRHelpers.ToInterval(period)\n\t).period)\n\ndefine function \"HospitalizationWithObservation\"(TheEncounter FHIR.Encounter):\n\tTheEncounter Visit\n\t\tlet ObsVisit: Last([Encounter: \"Observation Services\"] LastObs\n\t\t\t\twhere LastObs.period ends 1 hour or less on or before start of Visit.period\n\t\t\t\tsort by end of period\n\t\t\t),\n\t\t\tVisitStart: Coalesce(start of ObsVisit.period, start of Visit.period),\n\t\t\tEDVisit: Last([Encounter: \"Emergency Department Visit\"] LastED\n\t\t\t\twhere LastED.period ends 1 hour or less on or before VisitStart\n\t\t\t\tsort by end of period\n\t\t\t)\n\t\treturn Interval[Coalesce(start of EDVisit.period, VisitStart), end of Visit.period]\n\ndefine function \"HospitalizationWithObservationLengthofStay\"(Encounter FHIR.Encounter):\n\t\"LengthInDays\"(\"HospitalizationWithObservation\"(Encounter))\n\n// TODO - fix these (must fetch Location resources and compare id to reference)\n/*define function \"Hospital Departure Time\"(TheEncounter FHIR.Encounter):\n\tend of FHIRHelpers.ToInterval(Last(\n\t    ( \"Hospitalization Locations\"(TheEncounter) ) HospitalLocation\n\t\t\tsort by start of FHIRHelpers.ToInterval(period)\n\t).period)\n\ndefine function \"Emergency Department Arrival Time\"(TheEncounter FHIR.Encounter):\n\tstart of FHIRHelpers.ToInterval((\n\t    singleton from (\n\t        ( \"Hospitalization Locations\"(TheEncounter) ) HospitalLocation\n\t\t\t\twhere HospitalLocation.type ~ \"ER\"\n\t\t)\n\t).period)\n\ndefine function \"First Inpatient Intensive Care Unit\"(TheEncounter FHIR.Encounter):\n\tFirst(\n\t    ( TheEncounter.location ) HospitalLocation\n\t\t\twhere HospitalLocation.type ~ \"ICU\"\n\t\t\t\tand HospitalLocation.period during TheEncounter.period\n\t\t\tsort by start of FHIRHelpers.ToInterval(period)\n\t)*/\n\n/*\n*\n*    CQFMeasures Common Logic\n*\n*/\n\ndefine function \"Normalize Onset\"(onset Choice&lt;FHIR.dateTime, FHIR.Age, FHIR.Period, FHIR.Range, FHIR.string&gt;):\n  if onset is FHIR.dateTime then\n\t  Interval[FHIRHelpers.ToDateTime(onset as FHIR.dateTime), FHIRHelpers.ToDateTime(onset as FHIR.dateTime)]\n\telse if onset is FHIR.Period then\n\t  FHIRHelpers.ToInterval(onset as FHIR.Period)\n\telse if onset is FHIR.Age then\n\t  Interval[FHIRHelpers.ToDate(Patient.birthDate) + FHIRHelpers.ToQuantity(onset as FHIR.Age),\n\t\t  FHIRHelpers.ToDate(Patient.birthDate) + FHIRHelpers.ToQuantity(onset as FHIR.Age) + 1 year)\n\telse null\n\ndefine function \"Normalize Abatement\"(condition Condition):\n\tif condition.abatement is FHIR.dateTime then\n\t  Interval[FHIRHelpers.ToDateTime(condition.abatement as FHIR.dateTime), FHIRHelpers.ToDateTime(condition.abatement as FHIR.dateTime)]\n\telse if condition.abatement is FHIR.Period then\n\t  FHIRHelpers.ToInterval(condition.abatement as FHIR.Period)\n\telse if condition.abatement is FHIR.Age then\n\t\tInterval[FHIRHelpers.ToDate(Patient.birthDate) + FHIRHelpers.ToQuantity(condition.abatement as FHIR.Age),\n\t\t\tFHIRHelpers.ToDate(Patient.birthDate) + FHIRHelpers.ToQuantity(condition.abatement as FHIR.Age) + 1 year)\n\telse if condition.abatement is FHIR.boolean then\n\t  Interval[end of \"Normalize Onset\"(condition.onset), condition.assertedDate)\n\telse null\n\ndefine function \"GetPrevalencePeriod\"(condition Condition):\n  Interval[start of \"Normalize Onset\"(condition.onset), end of \"Normalize Abatement\"(condition))\n\ndefine function \"Normalize Interval\"(choice Choice&lt;FHIR.dateTime, FHIR.Period&gt;):\n  if choice is FHIR.dateTime then\n\t  Interval[FHIRHelpers.ToDateTime(choice as FHIR.dateTime), FHIRHelpers.ToDateTime(choice as FHIR.dateTime)]\n\telse\n\t  FHIRHelpers.ToInterval(choice as FHIR.Period)\n\ndefine function \"GetId\"(uri String):\n\tLast(Split(uri, '/'))\n\ndefine function \"EncounterDiagnosis\"(Encounter Encounter):\n  Encounter.diagnosis D\n    return singleton from ([Condition] Condition where Condition.id.value = \"GetId\"(D.condition.reference))\n\n// Returns the condition that is specified as the principal diagnosis for the encounter\ndefine function \"PrincipalDiagnosis\"(Encounter Encounter):\n\t(singleton from (Encounter.diagnosis D where D.role ~ ToConcept(\"Billing\") and D.rank = 1)) PD\n\t//\"GetId\"(uri String): returns the last String of a Split by / List therefor cannot use in\n\t\treturn singleton from ([Condition] Condition where Condition.id.value = \"GetId\"(PD.condition.reference))\n\n// Returns the location for the given location reference\ndefine function GetLocation(reference Reference):\n  singleton from (\n    [Location] Location where Location.id.value = GetId(reference.reference)\n  )\n\n/*\nNOTE: Extensions are not the preferred approach, but are used as a way to access\ncontent that is defined by extensions but not yet surfaced in the\nCQL model info.\n*/\ndefine function \"GetExtensions\"(domainResource DomainResource, url String):\n  domainResource.extension E\n\t  where E.url = ('http://hl7.org/fhir/us/qicore/StructureDefinition/' + url)\n\t\treturn E\n\ndefine function \"GetExtension\"(domainResource DomainResource, url String):\n  singleton from \"GetExtensions\"(domainResource, url)\n\n/*\nNOTE: Extensions are not the preferred approach, but are used as a way to access\ncontent that is defined by extensions but not yet surfaced in the\nCQL model info.\n*/\ndefine function \"GetBaseExtensions\"(domainResource DomainResource, url String):\n  domainResource.extension E\n\t  where E.url = ('http://hl7.org/fhir/StructureDefinition/' + url)\n\t\treturn E\n\ndefine function \"GetBaseExtension\"(domainResource DomainResource, url String):\n  singleton from \"GetBaseExtensions\"(domainResource, url)\n\n/*\nNOTE: Provenance is not the preferred approach, this is provided only as an illustration\nfor what using Provenance could look like, and is not a tested pattern\n*/\ndefine function \"GetProvenance\"(resource Resource):\n  singleton from ([Provenance: target in resource.id])\n\ndefine function \"GetMedicationCode\"(request MedicationRequest):\n  if request.medication is CodeableConcept then\n\t  request.medication as CodeableConcept\n\telse\n\t  (singleton from ([Medication: id in GetId((request.medication as Reference).reference)])).code\n</code></pre>\r\n                    \r\n                    \r\n                </td>\r\n            </tr>\r\n        \r\n    </table>\r\n</div>"
        },
        "version": "4.0.000",
        "name": "MATGlobalCommonFunctions_FHIR3",
        "status": "active",
        "experimental": true,
        "type": {
          "coding": [
            {
              "system": "http://hl7.org/fhir/codesystem-library-type.html",
              "code": "logic-library"
            }
          ]
        },
        "relatedArtifact": [
          {
            "type": "depends-on",
            "resource": {
              "reference": "Library/library-FHIRHelpers-3.0.0"
            }
          }
        ],
        "dataRequirement": [
          {
            "type": "Encounter",
            "codeFilter": [
              {
                "path": "type",
                "valueSetString": "http://cts.nlm.nih.gov/fhir/ValueSet/2.16.840.1.113883.3.666.5.307"
              }
            ]
          },
          {
            "type": "Encounter",
            "codeFilter": [
              {
                "path": "type",
                "valueSetString": "http://cts.nlm.nih.gov/fhir/ValueSet/2.16.840.1.113883.3.117.1.7.1.292"
              }
            ]
          },
          {
            "type": "Encounter",
            "codeFilter": [
              {
                "path": "type",
                "valueSetString": "http://cts.nlm.nih.gov/fhir/ValueSet/2.16.840.1.113762.1.4.1111.143"
              }
            ]
          },
          {
            "type": "Encounter",
            "codeFilter": [
              {
                "path": "type",
                "valueSetString": "http://cts.nlm.nih.gov/fhir/ValueSet/2.16.840.1.113883.3.117.1.7.1.292"
              }
            ]
          },
          {
            "type": "Condition"
          },
          {
            "type": "Condition"
          },
          {
            "type": "Location"
          },
          {
            "type": "Provenance",
            "codeFilter": [
              {
                "path": "target"
              }
            ]
          },
          {
            "type": "Medication",
            "codeFilter": [
              {
                "path": "id"
              }
            ]
          }
        ],
        "content": [
          {
            "contentType": "application/elm+xml",
            "data": ""
          },
          {
            "contentType": "text/cql",
            "data": ""
          }
        ]
      },
      "request": {
        "method": "PUT",
        "url": "Library/library-MATGlobalCommonFunctions-FHIR3-4.0.000"
      }
    },
    {
      "resource": {
        "resourceType": "MeasureReport",
        "id": "measurereport-numer-EXM161-FHIR3",
        "contained": [
          {
            "resourceType": "Bundle",
            "id": "e6738364-93ea-401f-91fc-2a57f1e9ba3b",
            "type": "collection",
            "entry": [
              {
                "fullUrl": "Encounter/numer-EXM161-FHIR3-2",
                "resource": {
                  "resourceType": "Encounter",
                  "id": "numer-EXM161-FHIR3-2",
                  "meta": {
                    "versionId": "1",
                    "lastUpdated": "2019-12-18T11:39:26.607-07:00",
                    "profile": [
                      "http://hl7.org/fhir/us/core/StructureDefinition/us-core-encounter"
                    ]
                  },
                  "status": "finished",
                  "type": [
                    {
                      "coding": [
                        {
                          "system": "http://www.ama-assn.org/go/cpt",
                          "code": "90791",
                          "display": "Psychiatric diagnostic evaluation"
                        }
                      ]
                    }
                  ],
                  "subject": {
                    "reference": "Patient/numer-EXM161-FHIR3"
                  },
                  "period": {
                    "start": "2019-08-21T00:00:00-06:00",
                    "end": "2019-12-19T08:15:00-07:00"
                  },
                  "diagnosis": [
                    {
                      "condition": {
                        "reference": "Condition/numer-EXM161-FHIR3-8"
                      },
                      "role": {
                        "coding": [
                          {
                            "system": "http://hl7.org/fhir/diagnosis-role",
                            "code": "billing",
                            "display": "Billing"
                          }
                        ]
                      },
                      "rank": 1
                    }
                  ]
                }
              },
              {
                "fullUrl": "Patient/numer-EXM161-FHIR3",
                "resource": {
                  "resourceType": "Patient",
                  "id": "numer-EXM161-FHIR3",
                  "meta": {
                    "versionId": "1",
                    "lastUpdated": "2019-12-18T11:39:26.607-07:00",
                    "profile": [
                      "http://hl7.org/fhir/us/core/StructureDefinition/us-core-patient"
                    ]
                  },
                  "text": {
                    "status": "generated",
                    "div": "<div xmlns=\"http://www.w3.org/1999/xhtml\"><div class=\"hapiHeaderText\">Louise <b>JONES </b></div><table class=\"hapiPropertyTable\"><tbody><tr><td>Identifier</td><td>9999999911</td></tr><tr><td>Date of birth</td><td><span>21 November 1971</span></td></tr></tbody></table></div>"
                  },
                  "extension": [
                    {
                      "url": "http://hl7.org/fhir/us/core/StructureDefinition/us-core-race",
                      "extension": [
                        {
                          "url": "ombCategory",
                          "valueCoding": {
                            "system": "urn:oid:2.16.840.1.113883.6.238",
                            "code": "2106-3",
                            "display": "White"
                          }
                        }
                      ]
                    },
                    {
                      "url": "http://hl7.org/fhir/us/core/StructureDefinition/us-core-ethnicity",
                      "extension": [
                        {
                          "url": "ombCategory",
                          "valueCoding": {
                            "system": "urn:oid:2.16.840.1.113883.6.238",
                            "code": "2186-5",
                            "display": "Not Hispanic or Latino"
                          }
                        }
                      ]
                    }
                  ],
                  "identifier": [
                    {
                      "use": "usual",
                      "type": {
                        "coding": [
                          {
                            "system": "http://terminology.hl7.org/CodeSystem/v2-0203",
                            "code": "MR",
                            "display": "Medical Record Number"
                          }
                        ]
                      },
                      "system": "http://hospital.smarthealthit.org",
                      "value": "9999999911"
                    }
                  ],
                  "name": [
                    {
                      "family": "Jones",
                      "given": [
                        "Louise"
                      ]
                    }
                  ],
                  "gender": "female",
                  "birthDate": "1971-11-21"
                }
              },
              {
                "fullUrl": "b4811b32-2ec5-4249-8026-bbe453ee009b",
                "resource": {
                  "resourceType": "List",
                  "id": "b4811b32-2ec5-4249-8026-bbe453ee009b",
                  "title": "initial-population",
                  "entry": [
                    {
                      "item": {
                        "reference": "numer-EXM161-FHIR3-2"
                      }
                    },
                    {
                      "item": {
                        "reference": "numer-EXM161-FHIR3"
                      }
                    },
                    {
                      "item": {
                        "reference": "numer-EXM161-FHIR3-8"
                      }
                    }
                  ]
                }
              },
              {
                "fullUrl": "b8688655-aa48-4805-afbc-bc6f2e5b3105",
                "resource": {
                  "resourceType": "List",
                  "id": "b8688655-aa48-4805-afbc-bc6f2e5b3105",
                  "title": "numerator",
                  "entry": [
                    {
                      "item": {
                        "reference": "numer-EXM161-FHIR3-5"
                      }
                    }
                  ]
                }
              },
              {
                "fullUrl": "Procedure/numer-EXM161-FHIR3-5",
                "resource": {
                  "resourceType": "Procedure",
                  "id": "numer-EXM161-FHIR3-5",
                  "meta": {
                    "versionId": "1",
                    "lastUpdated": "2019-12-18T11:39:26.607-07:00",
                    "profile": [
                      "http://hl7.org/fhir/us/core/StructureDefinition/us-core-procedure"
                    ]
                  },
                  "status": "completed",
                  "code": {
                    "coding": [
                      {
                        "system": "https://snomed.info/sct",
                        "code": "225337009",
                        "display": "Suicide risk assessment (procedure)"
                      }
                    ]
                  },
                  "subject": {
                    "reference": "Patient/numer-EXM161-FHIR3"
                  },
                  "performedPeriod": {
                    "start": "2019-08-24T00:00:00-06:00",
                    "end": "2019-10-19T08:15:00-07:00"
                  }
                }
              },
              {
                "fullUrl": "Condition/numer-EXM161-FHIR3-8",
                "resource": {
                  "resourceType": "Condition",
                  "id": "numer-EXM161-FHIR3-8",
                  "meta": {
                    "versionId": "1",
                    "lastUpdated": "2019-12-18T11:39:26.607-07:00",
                    "profile": [
                      "http://hl7.org/fhir/us/core/StructureDefinition/us-core-condition"
                    ]
                  },
                  "verificationStatus": "confirmed",
                  "category": [
                    {
                      "coding": [
                        {
                          "system": "http://terminology.hl7.org/CodeSystem/condition-category",
                          "code": "encounter-diagnosis",
                          "display": "Encounter Diagnosis"
                        }
                      ]
                    }
                  ],
                  "code": {
                    "coding": [
                      {
                        "system": "http://hl7.org/fhir/sid/icd-10",
                        "code": "F32.0",
                        "display": "Major depressive disorder, single episode, mild"
                      }
                    ]
                  },
                  "subject": {
                    "reference": "Patient/numer-EXM161-FHIR3"
                  }
                }
              }
            ]
          }
        ],
        "status": "complete",
        "type": "individual",
        "measure": {
          "reference": "Measure/measure-EXM161-FHIR3-8.0.0"
        },
        "patient": {
          "reference": "Patient/numer-EXM161-FHIR3"
        },
        "period": {
          "start": "2019-01-01T00:00:00-07:00",
          "end": "2019-12-31T00:00:00-07:00"
        },
        "group": [
          {
            "identifier": {
              "value": "group-1"
            },
            "population": [
              {
                "identifier": {
                  "value": "initial-population-identifier"
                },
                "code": {
                  "coding": [
                    {
                      "system": "http://terminology.hl7.org/CodeSystem/measure-population",
                      "code": "initial-population",
                      "display": "Initial Population"
                    }
                  ]
                },
                "count": 1
              },
              {
                "identifier": {
                  "value": "numerator-identifier"
                },
                "code": {
                  "coding": [
                    {
                      "system": "http://terminology.hl7.org/CodeSystem/measure-population",
                      "code": "numerator",
                      "display": "Numerator"
                    }
                  ]
                },
                "count": 1
              },
              {
                "identifier": {
                  "value": "denominator-identifier"
                },
                "code": {
                  "coding": [
                    {
                      "system": "http://terminology.hl7.org/CodeSystem/measure-population",
                      "code": "denominator",
                      "display": "Denominator"
                    }
                  ]
                },
                "count": 1
              }
            ],
            "measureScore": 1.0
          }
        ],
        "evaluatedResources": {
          "reference": "#e6738364-93ea-401f-91fc-2a57f1e9ba3b"
        }
      },
      "request": {
        "method": "PUT",
        "url": "MeasureReport/measurereport-numer-EXM161-FHIR3"
      }
    },
    {
      "resource": {
        "resourceType": "ValueSet",
        "id": "2.16.840.1.113883.3.464.1003.101.12.1031",
        "url": "http://cts.nlm.nih.gov/fhir/ValueSet/2.16.840.1.113883.3.464.1003.101.12.1031",
        "title": "Telehealth Services",
        "status": "active",
        "publisher": "National Committee for Quality Assurance",
        "compose": {
          "include": [
            {
              "system": "http://www.ama-assn.org/go/cpt",
              "version": "2020",
              "concept": [
                {
                  "code": "98966",
                  "display": "Telephone assessment and management service provided by a qualified nonphysician health care professional to an established patient, parent, or guardian not originating from a related assessment and management service provided within the previous 7 days nor leading to an assessment and management service or procedure within the next 24 hours or soonest available appointment; 5-10 minutes of medical discussion"
                },
                {
                  "code": "98967",
                  "display": "Telephone assessment and management service provided by a qualified nonphysician health care professional to an established patient, parent, or guardian not originating from a related assessment and management service provided within the previous 7 days nor leading to an assessment and management service or procedure within the next 24 hours or soonest available appointment; 11-20 minutes of medical discussion"
                },
                {
                  "code": "98968",
                  "display": "Telephone assessment and management service provided by a qualified nonphysician health care professional to an established patient, parent, or guardian not originating from a related assessment and management service provided within the previous 7 days nor leading to an assessment and management service or procedure within the next 24 hours or soonest available appointment; 21-30 minutes of medical discussion"
                },
                {
                  "code": "99441",
                  "display": "Telephone evaluation and management service by a physician or other qualified health care professional who may report evaluation and management services provided to an established patient, parent, or guardian not originating from a related E/M service provided within the previous 7 days nor leading to an E/M service or procedure within the next 24 hours or soonest available appointment; 5-10 minutes of medical discussion"
                },
                {
                  "code": "99442",
                  "display": "Telephone evaluation and management service by a physician or other qualified health care professional who may report evaluation and management services provided to an established patient, parent, or guardian not originating from a related E/M service provided within the previous 7 days nor leading to an E/M service or procedure within the next 24 hours or soonest available appointment; 11-20 minutes of medical discussion"
                },
                {
                  "code": "99443",
                  "display": "Telephone evaluation and management service by a physician or other qualified health care professional who may report evaluation and management services provided to an established patient, parent, or guardian not originating from a related E/M service provided within the previous 7 days nor leading to an E/M service or procedure within the next 24 hours or soonest available appointment; 21-30 minutes of medical discussion"
                }
              ]
            }
          ]
        }
      },
      "request": {
        "method": "PUT",
        "url": "ValueSet/2.16.840.1.113883.3.464.1003.101.12.1031"
      }
    },
    {
      "resource": {
        "resourceType": "Condition",
        "id": "denom-EXM161-FHIR3-8",
        "meta": {
          "profile": [
            "http://hl7.org/fhir/us/core/StructureDefinition/us-core-condition"
          ]
        },
        "verificationStatus": "confirmed",
        "category": [
          {
            "coding": [
              {
                "system": "http://terminology.hl7.org/CodeSystem/condition-category",
                "code": "encounter-diagnosis",
                "display": "Encounter Diagnosis"
              }
            ]
          }
        ],
        "code": {
          "coding": [
            {
              "system": "http://hl7.org/fhir/sid/icd-10",
              "code": "F32.0",
              "display": "Major depressive disorder, single episode, mild"
            }
          ]
        },
        "subject": {
          "reference": "Patient/denom-EXM161-FHIR3"
        }
      },
      "request": {
        "method": "PUT",
        "url": "Condition/denom-EXM161-FHIR3-8"
      }
    },
    {
      "resource": {
        "resourceType": "ValueSet",
        "id": "2.16.840.1.113883.3.526.3.1496",
        "url": "http://cts.nlm.nih.gov/fhir/ValueSet/2.16.840.1.113883.3.526.3.1496",
        "identifier": [
          {
            "system": "urn:ietf:rfc:3986",
            "value": "2.16.840.1.113883.3.526.3.1496"
          }
        ],
        "version": "20170504",
        "name": "PsychVisit-Psychotherapy",
        "title": "Psych Visit - Psychotherapy",
        "status": "active",
        "publisher": "NLM",
        "compose": {
          "include": [
            {
              "system": "http://www.ama-assn.org/go/cpt",
              "version": "2018",
              "concept": [
                {
                  "code": "90832",
                  "display": "Psychotherapy, 30 minutes with patient"
                },
                {
                  "code": "90834",
                  "display": "Psychotherapy, 45 minutes with patient"
                },
                {
                  "code": "90837",
                  "display": "Psychotherapy, 60 minutes with patient"
                }
              ]
            }
          ]
        }
      },
      "request": {
        "method": "PUT",
        "url": "ValueSet/2.16.840.1.113883.3.526.3.1496"
      }
    },
    {
      "resource": {
        "resourceType": "ValueSet",
        "id": "2.16.840.1.113883.3.526.3.1492",
        "url": "http://cts.nlm.nih.gov/fhir/ValueSet/2.16.840.1.113883.3.526.3.1492",
        "identifier": [
          {
            "system": "urn:ietf:rfc:3986",
            "value": "2.16.840.1.113883.3.526.3.1492"
          }
        ],
        "version": "20170504",
        "name": "PsychVisit-DiagnosticEvaluation",
        "title": "Psych Visit - Diagnostic Evaluation",
        "status": "active",
        "publisher": "NLM",
        "compose": {
          "include": [
            {
              "system": "http://www.ama-assn.org/go/cpt",
              "version": "2018",
              "concept": [
                {
                  "code": "90791",
                  "display": "Psychiatric diagnostic evaluation"
                },
                {
                  "code": "90792",
                  "display": "Psychiatric diagnostic evaluation with medical services"
                }
              ]
            }
          ]
        }
      },
      "request": {
        "method": "PUT",
        "url": "ValueSet/2.16.840.1.113883.3.526.3.1492"
      }
    },
    {
      "resource": {
        "resourceType": "ValueSet",
        "id": "2.16.840.1.113883.3.526.3.1491",
        "url": "http://cts.nlm.nih.gov/fhir/ValueSet/2.16.840.1.113883.3.526.3.1491",
        "identifier": [
          {
            "system": "urn:ietf:rfc:3986",
            "value": "2.16.840.1.113883.3.526.3.1491"
          }
        ],
        "version": "20170504",
        "name": "MajorDepressiveDisorder-Active",
        "title": "Major Depressive Disorder-Active",
        "status": "active",
        "publisher": "NLM",
        "compose": {
          "include": [
            {
              "system": "http://hl7.org/fhir/sid/icd-10",
              "version": "2019",
              "concept": [
                {
                  "code": "F32.0",
                  "display": "Major depressive disorder, single episode, mild"
                },
                {
                  "code": "F32.1",
                  "display": "Major depressive disorder, single episode, moderate"
                },
                {
                  "code": "F32.2",
                  "display": "Major depressive disorder, single episode, severe without psychotic features"
                },
                {
                  "code": "F32.3",
                  "display": "Major depressive disorder, single episode, severe with psychotic features"
                },
                {
                  "code": "F32.89",
                  "display": "Other specified depressive episodes"
                },
                {
                  "code": "F32.9",
                  "display": "Major depressive disorder, single episode, unspecified"
                },
                {
                  "code": "F33.0",
                  "display": "Major depressive disorder, recurrent, mild"
                },
                {
                  "code": "F33.1",
                  "display": "Major depressive disorder, recurrent, moderate"
                },
                {
                  "code": "F33.2",
                  "display": "Major depressive disorder, recurrent severe without psychotic features"
                },
                {
                  "code": "F33.3",
                  "display": "Major depressive disorder, recurrent, severe with psychotic symptoms"
                },
                {
                  "code": "F33.9",
                  "display": "Major depressive disorder, recurrent, unspecified"
                }
              ]
            },
            {
              "system": "http://hl7.org/fhir/sid/icd-9-cm",
              "version": "2013",
              "concept": [
                {
                  "code": "296.20",
                  "display": "Major depressive affective disorder, single episode, unspecified"
                },
                {
                  "code": "296.21",
                  "display": "Major depressive affective disorder, single episode, mild"
                },
                {
                  "code": "296.22",
                  "display": "Major depressive affective disorder, single episode, moderate"
                },
                {
                  "code": "296.23",
                  "display": "Major depressive affective disorder, single episode, severe, without mention of psychotic behavior"
                },
                {
                  "code": "296.24",
                  "display": "Major depressive affective disorder, single episode, severe, specified as with psychotic behavior"
                },
                {
                  "code": "296.30",
                  "display": "Major depressive affective disorder, recurrent episode, unspecified"
                },
                {
                  "code": "296.31",
                  "display": "Major depressive affective disorder, recurrent episode, mild"
                },
                {
                  "code": "296.32",
                  "display": "Major depressive affective disorder, recurrent episode, moderate"
                },
                {
                  "code": "296.33",
                  "display": "Major depressive affective disorder, recurrent episode, severe, without mention of psychotic behavior"
                },
                {
                  "code": "296.34",
                  "display": "Major depressive affective disorder, recurrent episode, severe, specified as with psychotic behavior"
                }
              ]
            },
            {
              "system": "http://snomed.info/sct",
              "version": "2018-03",
              "concept": [
                {
                  "code": "14183003",
                  "display": "Chronic major depressive disorder, single episode (disorder)"
                },
                {
                  "code": "15193003",
                  "display": "Severe recurrent major depression with psychotic features, mood-incongruent (disorder)"
                },
                {
                  "code": "15639000",
                  "display": "Moderate major depression, single episode (disorder)"
                },
                {
                  "code": "18818009",
                  "display": "Moderate recurrent major depression (disorder)"
                },
                {
                  "code": "191610000",
                  "display": "Recurrent major depressive episodes, mild (disorder)"
                },
                {
                  "code": "191611001",
                  "display": "Recurrent major depressive episodes, moderate (disorder)"
                },
                {
                  "code": "191613003",
                  "display": "Recurrent major depressive episodes, severe, with psychosis (disorder)"
                },
                {
                  "code": "20250007",
                  "display": "Severe major depression, single episode, with psychotic features, mood-incongruent (disorder)"
                },
                {
                  "code": "25922000",
                  "display": "Major depressive disorder, single episode with postpartum onset (disorder)"
                },
                {
                  "code": "2618002",
                  "display": "Chronic recurrent major depressive disorder (disorder)"
                },
                {
                  "code": "268621008",
                  "display": "Recurrent major depressive episodes (disorder)"
                },
                {
                  "code": "28475009",
                  "display": "Severe recurrent major depression with psychotic features (disorder)"
                },
                {
                  "code": "319768000",
                  "display": "Recurrent major depressive disorder with melancholic features (disorder)"
                },
                {
                  "code": "320751009",
                  "display": "Major depression, melancholic type (disorder)"
                },
                {
                  "code": "33078009",
                  "display": "Severe recurrent major depression with psychotic features, mood-congruent (disorder)"
                },
                {
                  "code": "33736005",
                  "display": "Severe major depression with psychotic features, mood-congruent (disorder)"
                },
                {
                  "code": "36474008",
                  "display": "Severe recurrent major depression without psychotic features (disorder)"
                },
                {
                  "code": "36923009",
                  "display": "Major depression, single episode (disorder)"
                },
                {
                  "code": "370143000",
                  "display": "Major depressive disorder (disorder)"
                },
                {
                  "code": "38694004",
                  "display": "Recurrent major depressive disorder with atypical features (disorder)"
                },
                {
                  "code": "39809009",
                  "display": "Recurrent major depressive disorder with catatonic features (disorder)"
                },
                {
                  "code": "40379007",
                  "display": "Mild recurrent major depression (disorder)"
                },
                {
                  "code": "42925002",
                  "display": "Major depressive disorder, single episode with atypical features (disorder)"
                },
                {
                  "code": "430852001",
                  "display": "Severe major depression, single episode, with psychotic features (disorder)"
                },
                {
                  "code": "60099002",
                  "display": "Severe major depression with psychotic features, mood-incongruent (disorder)"
                },
                {
                  "code": "63778009",
                  "display": "Major depressive disorder, single episode with melancholic features (disorder)"
                },
                {
                  "code": "66344007",
                  "display": "Recurrent major depression (disorder)"
                },
                {
                  "code": "69392006",
                  "display": "Major depressive disorder, single episode with catatonic features (disorder)"
                },
                {
                  "code": "71336009",
                  "display": "Recurrent major depressive disorder with postpartum onset (disorder)"
                },
                {
                  "code": "73867007",
                  "display": "Severe major depression with psychotic features (disorder)"
                },
                {
                  "code": "75084000",
                  "display": "Severe major depression without psychotic features (disorder)"
                },
                {
                  "code": "76441001",
                  "display": "Severe major depression, single episode, without psychotic features (disorder)"
                },
                {
                  "code": "77911002",
                  "display": "Severe major depression, single episode, with psychotic features, mood-congruent (disorder)"
                },
                {
                  "code": "79298009",
                  "display": "Mild major depression, single episode (disorder)"
                },
                {
                  "code": "832007",
                  "display": "Moderate major depression (disorder)"
                },
                {
                  "code": "87512008",
                  "display": "Mild major depression (disorder)"
                }
              ]
            }
          ]
        }
      },
      "request": {
        "method": "PUT",
        "url": "ValueSet/2.16.840.1.113883.3.526.3.1491"
      }
    },
    {
      "resource": {
        "resourceType": "Library",
        "id": "library-FHIRHelpers-3.0.0",
        "text": {
          "status": "generated",
          "div": "<div xmlns=\"http://www.w3.org/1999/xhtml\"><table class=\"grid dict\"><tr><th scope=\"row\"><b>Id: </b></th><td style=\"padding-left: 25px; padding-right: 25px;\">library-FHIRHelpers-3.0.0</td></tr><tr><th scope=\"row\"><b>Type: </b></th><td style=\"padding-right: 25px;\"> logic-library </td></tr><tr><th scope=\"row\"><b>Version: </b></th><td style=\"padding-left: 25px; padding-right: 25px;\">3.0.0</td></tr><tr><th scope=\"row\"><b>Status: </b></th><td style=\"padding-left: 25px; padding-right: 25px;\">active</td></tr><tr style=\"vertical-align: top;\"><th scope=\"row\"><b>Content: </b></th><td style=\"padding-left: 25px; padding-right: 25px;\"><b>type: </b><span>text/cql</span></td></tr><tr><td colspan=\"2\" style=\"padding-left: 25px; padding-right: 25px;\"><pre><code class=\"language-cql\">library FHIRHelpers version '3.0.0'\n\nusing FHIR version '3.0.0'\n\ndefine function ToInterval(period FHIR.Period):\n    if period is null then\n        null\n    else\n        Interval[period.\"start\".value, period.\"end\".value]\n\ndefine function ToQuantity(quantity FHIR.Quantity):\n    if quantity is null then\n        null\n    else\n        System.Quantity { value: quantity.value.value, unit: quantity.unit.value }\n\ndefine function ToInterval(range FHIR.Range):\n    if range is null then\n        null\n    else\n        Interval[ToQuantity(range.low), ToQuantity(range.high)]\n\ndefine function ToCode(coding FHIR.Coding):\n    if coding is null then\n        null\n    else\n        System.Code {\n          code: coding.code.value,\n          system: coding.system.value,\n          version: coding.version.value,\n          display: coding.display.value\n        }\n\ndefine function ToConcept(concept FHIR.CodeableConcept):\n    if concept is null then\n         null\n    else\n        System.Concept {\n            codes: concept.coding C return ToCode(C),\n            display: concept.text.value\n        }\n\ndefine function ToString(value FHIR.uuid): value.value\ndefine function ToString(value FHIR.TestScriptRequestMethodCode): value.value\ndefine function ToString(value FHIR.ProvenanceEntityRole): value.value\ndefine function ToString(value FHIR.UnitsOfTime): value.value\ndefine function ToString(value FHIR.AddressType): value.value\ndefine function ToString(value FHIR.AllergyIntoleranceCategory): value.value\ndefine function ToString(value FHIR.SpecimenStatus): value.value\ndefine function ToString(value FHIR.RestfulCapabilityMode): value.value\ndefine function ToString(value FHIR.DetectedIssueSeverity): value.value\ndefine function ToString(value FHIR.IssueSeverity): value.value\ndefine function ToString(value FHIR.CareTeamStatus): value.value\ndefine function ToString(value FHIR.DataElementStringency): value.value\ndefine function ToString(value FHIR.VisionEyes): value.value\ndefine function ToString(value FHIR.EncounterStatus): value.value\ndefine function ToString(value FHIR.StructureDefinitionKind): value.value\ndefine function ToString(value FHIR.PublicationStatus): value.value\ndefine function ToString(value FHIR.ConsentDataMeaning): value.value\ndefine function ToString(value FHIR.StructureMapSourceListMode): value.value\ndefine function ToString(value FHIR.RequestStatus): value.value\ndefine function ToString(value FHIR.QuestionnaireResponseStatus): value.value\ndefine function ToString(value FHIR.SearchComparator): value.value\ndefine function ToString(value FHIR.ChargeItemStatus): value.value\ndefine function ToString(value FHIR.ActionParticipantType): value.value\ndefine function ToString(value FHIR.AllergyIntoleranceType): value.value\ndefine function ToString(value FHIR.DocumentRelationshipType): value.value\ndefine function ToString(value FHIR.AllergyIntoleranceClinicalStatus): value.value\ndefine function ToString(value FHIR.CarePlanActivityStatus): value.value\ndefine function ToString(value FHIR.ActionList): value.value\ndefine function ToString(value FHIR.ParticipationStatus): value.value\ndefine function ToString(value FHIR.TestReportResult): value.value\ndefine function ToString(value FHIR.ConceptMapGroupUnmappedMode): value.value\ndefine function ToDateTime(value FHIR.instant): value.value\ndefine function ToDateTime(value FHIR.dateTime): value.value\ndefine function ToDate(value FHIR.date): value.value\ndefine function ToString(value FHIR.DocumentMode): value.value\ndefine function ToString(value FHIR.AssertionOperatorType): value.value\ndefine function ToString(value FHIR.DaysOfWeek): value.value\ndefine function ToString(value FHIR.IssueType): value.value\ndefine function ToString(value FHIR.ContentType): value.value\ndefine function ToString(value FHIR.StructureMapContextType): value.value\ndefine function ToString(value FHIR.FamilyHistoryStatus): value.value\ndefine function ToInteger(value FHIR.positiveInt): value.value\ndefine function ToString(value FHIR.ClinicalImpressionStatus): value.value\ndefine function ToString(value FHIR.AssertionResponseTypes): value.value\ndefine function ToString(value FHIR.RequestIntent): value.value\ndefine function ToString(value FHIR.NarrativeStatus): value.value\ndefine function ToString(value FHIR.MeasmntPrinciple): value.value\ndefine function ToString(value FHIR.ConsentExceptType): value.value\ndefine function ToString(value FHIR.string): value.value\ndefine function ToString(value FHIR.ActionRequiredBehavior): value.value\ndefine function ToString(value FHIR.EndpointStatus): value.value\ndefine function ToString(value FHIR.GuidePageKind): value.value\ndefine function ToString(value FHIR.GuideDependencyType): value.value\ndefine function ToString(value FHIR.ResourceVersionPolicy): value.value\ndefine function ToString(value FHIR.MedicationRequestStatus): value.value\ndefine function ToString(value FHIR.MedicationAdministrationStatus): value.value\ndefine function ToString(value FHIR.ActionCardinalityBehavior): value.value\ndefine function ToString(value FHIR.MedicationRequestIntent): value.value\ndefine function ToString(value FHIR.NamingSystemIdentifierType): value.value\ndefine function ToString(value FHIR.ImmunizationStatusCodes): value.value\ndefine function ToString(value FHIR.AccountStatus): value.value\ndefine function ToString(value FHIR.MedicationDispenseStatus): value.value\ndefine function ToString(value FHIR.ConfidentialityClassification): value.value\ndefine function ToString(value FHIR.IdentifierUse): value.value\ndefine function ToString(value FHIR.DigitalMediaType): value.value\ndefine function ToString(value FHIR.StructureMapTargetListMode): value.value\ndefine function ToString(value FHIR.TestReportParticipantType): value.value\ndefine function ToString(value FHIR.BindingStrength): value.value\ndefine function ToString(value FHIR.RequestPriority): value.value\ndefine function ToString(value FHIR.ParticipantRequired): value.value\ndefine function ToString(value FHIR.DiscriminatorType): value.value\ndefine function ToString(value FHIR.XPathUsageType): value.value\ndefine function ToString(value FHIR.StructureMapInputMode): value.value\ndefine function ToString(value FHIR.InstanceAvailability): value.value\ndefine function ToString(value FHIR.id): value.value\ndefine function ToString(value FHIR.LinkageType): value.value\ndefine function ToString(value FHIR.ReferenceHandlingPolicy): value.value\ndefine function ToString(value FHIR.MedicationStatus): value.value\ndefine function ToString(value FHIR.FilterOperator): value.value\ndefine function ToString(value FHIR.NamingSystemType): value.value\ndefine function ToString(value FHIR.ResearchStudyStatus): value.value\ndefine function ToString(value FHIR.ExtensionContext): value.value\ndefine function ToString(value FHIR.FHIRDefinedType): value.value\ndefine function ToString(value FHIR.AuditEventOutcome): value.value\ndefine function ToString(value FHIR.ActionRelationshipType): value.value\ndefine function ToString(value FHIR.ConstraintSeverity): value.value\ndefine function ToString(value FHIR.EventCapabilityMode): value.value\ndefine function ToString(value FHIR.ContractResourceStatusCodes): value.value\ndefine function ToString(value FHIR.ResearchSubjectStatus): value.value\ndefine function ToString(value FHIR.UDIEntryType): value.value\ndefine function ToString(value FHIR.DeviceMetricCategory): value.value\ndefine function ToString(value FHIR.TestReportActionResult): value.value\ndefine function ToString(value FHIR.StructureMapTransform): value.value\ndefine function ToString(value FHIR.ResponseType): value.value\ndefine function ToDecimal(value FHIR.decimal): value.value\ndefine function ToString(value FHIR.AggregationMode): value.value\ndefine function ToString(value FHIR.CapabilityStatementKind): value.value\ndefine function ToString(value FHIR.AllergyIntoleranceVerificationStatus): value.value\ndefine function ToString(value FHIR.EventTiming): value.value\ndefine function ToString(value FHIR.GoalStatus): value.value\ndefine function ToString(value FHIR.SearchParamType): value.value\ndefine function ToString(value FHIR.SystemRestfulInteraction): value.value\ndefine function ToString(value FHIR.ActionGroupingBehavior): value.value\ndefine function ToString(value FHIR.StructureMapModelMode): value.value\ndefine function ToString(value FHIR.TaskStatus): value.value\ndefine function ToString(value FHIR.AdverseEventCausality): value.value\ndefine function ToString(value FHIR.SubscriptionChannelType): value.value\ndefine function ToString(value FHIR.GraphCompartmentRule): value.value\ndefine function ToString(value FHIR.AssertionDirectionType): value.value\ndefine function ToString(value FHIR.CarePlanIntent): value.value\ndefine function ToString(value FHIR.SlicingRules): value.value\ndefine function ToString(value FHIR.ExplanationOfBenefitStatus): value.value\ndefine function ToString(value FHIR.ConsentState): value.value\ndefine function ToString(value FHIR.AdverseEventCategory): value.value\ndefine function ToString(value FHIR.LinkType): value.value\ndefine function ToString(value FHIR.AllergyIntoleranceCriticality): value.value\ndefine function ToString(value FHIR.MedicationRequestPriority): value.value\ndefine function ToString(value FHIR.ConceptMapEquivalence): value.value\ndefine function ToString(value FHIR.FHIRAllTypes): value.value\ndefine function ToString(value FHIR.PropertyRepresentation): value.value\ndefine function ToString(value FHIR.AuditEventAction): value.value\ndefine function ToString(value FHIR.TriggerType): value.value\ndefine function ToString(value FHIR.SearchModifierCode): value.value\ndefine function ToString(value FHIR.CompositionStatus): value.value\ndefine function ToString(value FHIR.AppointmentStatus): value.value\ndefine function ToString(value FHIR.MessageSignificanceCategory): value.value\ndefine function ToString(value FHIR.EventStatus): value.value\ndefine function ToString(value FHIR.OperationParameterUse): value.value\ndefine function ToString(value FHIR.ListMode): value.value\ndefine function ToString(value FHIR.ActionConditionKind): value.value\ndefine function ToString(value FHIR.ObservationStatus): value.value\ndefine function ToString(value FHIR.qualityType): value.value\ndefine function ToString(value FHIR.AdministrativeGender): value.value\ndefine function ToString(value FHIR.ResourceType): value.value\ndefine function ToString(value FHIR.QuestionnaireItemType): value.value\ndefine function ToBoolean(value FHIR.boolean): value.value\ndefine function ToString(value FHIR.StructureMapGroupTypeMode): value.value\ndefine function ToString(value FHIR.DeviceMetricCalibrationType): value.value\ndefine function ToString(value FHIR.code): value.value\ndefine function ToString(value FHIR.SupplyRequestStatus): value.value\ndefine function ToString(value FHIR.ActionSelectionBehavior): value.value\ndefine function ToString(value FHIR.EncounterLocationStatus): value.value\ndefine function ToString(value FHIR.SupplyDeliveryStatus): value.value\ndefine function ToString(value FHIR.DiagnosticReportStatus): value.value\ndefine function ToString(value FHIR.FlagStatus): value.value\ndefine function ToString(value FHIR.CarePlanStatus): value.value\ndefine function ToString(value FHIR.ConditionClinicalStatusCodes): value.value\ndefine function ToString(value FHIR.ListStatus): value.value\ndefine function Tobase64Binary(value FHIR.base64Binary): value.value\ndefine function ToString(value FHIR.DeviceUseStatementStatus): value.value\ndefine function ToString(value FHIR.AuditEventAgentNetworkType): value.value\ndefine function ToString(value FHIR.AddressUse): value.value\ndefine function ToString(value FHIR.ConditionalDeleteStatus): value.value\ndefine function ToString(value FHIR.ContactPointUse): value.value\ndefine function ToString(value FHIR.DeviceMetricOperationalStatus): value.value\ndefine function ToString(value FHIR.NutritionOrderStatus): value.value\ndefine function ToString(value FHIR.uri): value.value\ndefine function ToString(value FHIR.ContributorType): value.value\ndefine function ToString(value FHIR.ReferenceVersionRules): value.value\ndefine function ToString(value FHIR.Use): value.value\ndefine function ToString(value FHIR.IdentityAssuranceLevel): value.value\ndefine function ToString(value FHIR.MeasureReportStatus): value.value\ndefine function ToString(value FHIR.DeviceMetricColor): value.value\ndefine function ToString(value FHIR.SearchEntryMode): value.value\ndefine function ToTime(value FHIR.time): value.value\ndefine function ToString(value FHIR.ConditionalReadStatus): value.value\ndefine function ToString(value FHIR.ConditionVerificationStatus): value.value\ndefine function ToString(value FHIR.AllergyIntoleranceSeverity): value.value\ndefine function ToString(value FHIR.FinancialResourceStatusCodes): value.value\ndefine function ToString(value FHIR.OperationKind): value.value\ndefine function ToString(value FHIR.ObservationRelationshipType): value.value\ndefine function ToInteger(value FHIR.unsignedInt): value.value\ndefine function ToString(value FHIR.NameUse): value.value\ndefine function ToString(value FHIR.SubscriptionStatus): value.value\ndefine function ToString(value FHIR.DocumentReferenceStatus): value.value\ndefine function ToString(value FHIR.LocationMode): value.value\ndefine function ToInteger(value FHIR.integer): value.value\ndefine function ToString(value FHIR.repositoryType): value.value\ndefine function ToString(value FHIR.LocationStatus): value.value\ndefine function ToString(value FHIR.FHIRSubstanceStatus): value.value\ndefine function ToString(value FHIR.UnknownContentCode): value.value\ndefine function ToString(value FHIR.NoteType): value.value\ndefine function ToString(value FHIR.TestReportStatus): value.value\ndefine function ToString(value FHIR.HTTPVerb): value.value\ndefine function ToString(value FHIR.CodeSystemContentMode): value.value\ndefine function ToString(value FHIR.EpisodeOfCareStatus): value.value\ndefine function ToString(value FHIR.RemittanceOutcome): value.value\ndefine function ToString(value FHIR.FHIRDeviceStatus): value.value\ndefine function ToString(value FHIR.ContactPointSystem): value.value\ndefine function ToString(value FHIR.SlotStatus): value.value\ndefine function ToString(value FHIR.PropertyType): value.value\ndefine function ToString(value FHIR.markdown): value.value\ndefine function ToString(value FHIR.TypeDerivationRule): value.value\ndefine function ToString(value FHIR.MedicationStatementStatus): value.value\ndefine function ToString(value FHIR.GuidanceResponseStatus): value.value\ndefine function ToString(value FHIR.QuantityComparator): value.value\ndefine function ToString(value FHIR.RelatedArtifactType): value.value\ndefine function ToString(value FHIR.oid): value.value\ndefine function ToString(value FHIR.MeasureReportType): value.value\ndefine function ToString(value FHIR.ActionPrecheckBehavior): value.value\ndefine function ToString(value FHIR.SampledDataDataType): value.value\ndefine function ToString(value FHIR.MedicationStatementTaken): value.value\ndefine function ToString(value FHIR.CompartmentType): value.value\ndefine function ToString(value FHIR.CompositionAttestationMode): value.value\ndefine function ToString(value FHIR.DeviceMetricCalibrationState): value.value\ndefine function ToString(value FHIR.GroupType): value.value\ndefine function ToString(value FHIR.TypeRestfulInteraction): value.value\ndefine function ToString(value FHIR.CodeSystemHierarchyMeaning): value.value\ndefine function ToString(value FHIR.VisionBase): value.value\ndefine function ToString(value FHIR.BundleType): value.value\ndefine function ToString(value FHIR.SystemVersionProcessingMode): value.value\n</code></pre>\r\n                    \r\n                    \r\n                </td>\r\n            </tr>\r\n        \r\n    </table>\r\n</div>"
        },
        "version": "3.0.0",
        "name": "FHIRHelpers",
        "status": "active",
        "experimental": true,
        "type": {
          "coding": [
            {
              "system": "http://hl7.org/fhir/codesystem-library-type.html",
              "code": "logic-library"
            }
          ]
        },
        "content": [
          {
            "contentType": "application/elm+xml",
            "data": ""
          },
          {
            "contentType": "text/cql",
            "data": ""
          }
        ]
      },
      "request": {
        "method": "PUT",
        "url": "Library/library-FHIRHelpers-3.0.0"
      }
    },
    {
      "resource": {
        "resourceType": "Encounter",
        "id": "numer-EXM161-FHIR3-2",
        "meta": {
          "profile": [
            "http://hl7.org/fhir/us/core/StructureDefinition/us-core-encounter"
          ]
        },
        "status": "finished",
        "type": [
          {
            "coding": [
              {
                "system": "http://www.ama-assn.org/go/cpt",
                "code": "90791",
                "display": "Psychiatric diagnostic evaluation"
              }
            ]
          }
        ],
        "subject": {
          "reference": "Patient/numer-EXM161-FHIR3"
        },
        "period": {
          "start": "2019-08-21T00:00:00-06:00",
          "end": "2019-12-19T08:15:00-07:00"
        },
        "diagnosis": [
          {
            "condition": {
              "reference": "Condition/numer-EXM161-FHIR3-8"
            },
            "role": {
              "coding": [
                {
                  "system": "http://hl7.org/fhir/diagnosis-role",
                  "code": "billing",
                  "display": "Billing"
                }
              ]
            },
            "rank": 1
          }
        ]
      },
      "request": {
        "method": "PUT",
        "url": "Encounter/numer-EXM161-FHIR3-2"
      }
    },
    {
      "resource": {
        "resourceType": "Measure",
        "id": "measure-EXM161-FHIR3-8.0.0",
        "meta": {
          "versionId": "2",
          "lastUpdated": "2019-12-13T06:24:04.405+00:00",
          "profile": [
            "http://hl7.org/fhir/us/cqfmeasures/StructureDefinition/proportion-measure-cqfm"
          ]
        },
        "text": {
          "status": "generated",
          "div": "<div xmlns=\"http://www.w3.org/1999/xhtml\"><table style=\"width: 60%; border-bottom: none;\" class=\"header_table\">      <!-- <tr th:if=\"${resource.hasId()}\" style=\"vertical-align: top;\"><th style=\"background-color:#656565; width:20%\" scope=\"row\"><span class=\"td_label\">Id: </span></th><td style=\"width:80%\" colspan=\"3\"  th:narrative=\"${resource.id}\"></td></tr> --><tr style=\"vertical-align: top;\"><td scope=\"row\" style=\"background-color:#656565; width:20%\"><span class=\"td_label\">Measure Title</span></td><td colspan=\"1\" style=\"width:60%\"><h1 style=\"font-size:10px\">Adult Major Depressive Disorder (MDD): Suicide Risk Assessment</h1></td><td scope=\"row\" style=\"background-color:#656565; width:10%\"><span class=\"td_label\">Measure ID</span></td><td colspan=\"1\" style=\"width:10%\"><h1 style=\"font-size:10px\">EXM161</h1></td></tr>      <!-- <th:block th:each=\"ident, iter : ${resource.identifier}\"><tr th:if=\"${ident.type.coding[0].code == 'CMS'}\" style=\"vertical-align: top;\"><td style=\"background-color:#656565; width:20%\" scope=\"row\"><span class=\"td_label\">eCQM Identifier (Measure Authoring Tool)</span></td><td style=\"width:30%\" th:narrative=\"${ident.value}\"></td><td style=\"background-color:#656565; width:20%\" scope=\"row\"><span class=\"td_label\">eCQM Version number</span></td><td style=\"width:30%\" th:narrative=\"${resource.version}\"></td></tr></th:block><th:block th:each=\"ident, iter : ${resource.identifier}\"><tr th:if=\"${ident.type.coding[0].code == 'NQF'}\" style=\"vertical-align: top;\"><td style=\"background-color:#656565; width:20%\" scope=\"row\"><span class=\"td_label\">NQF Number</span></td><td style=\"width:30%\" th:narrative=\"${ident.value}\"></td><td style=\"background-color:#656565; width:20%\" scope=\"row\"><span class=\"td_label\">GUID</span></td><td style=\"width:30%\" th:narrative=\"${resource.url}\"></td></tr></th:block> --><tr style=\"vertical-align: top;\"><td scope=\"row\" style=\"background-color:#656565; width:20%\"><span class=\"td_label\">Description</span></td><td colspan=\"3\" style=\"width:80%\"><div style=\"width:660px;overflow-x:hidden;overflow-y:auto\"><pre><p>Percentage of patients aged 18 years and older with a diagnosis of major depressive disorder (MDD) with a suicide risk assessment completed during the visit in which a new diagnosis or recurrent episode was identified</p>\n</pre>\n                </div>\n            </td>\n        </tr>\n        <tr>\n            <td scope=\"row\" style=\"background-color:#656565; width:20%\"><span class=\"td_label\">Measurement Period</span></td>\n            <td colspan=\"3\" style=\"width:80%\">January 1 - December 31</td>\n        </tr>\n              <!-- <tr>\n            <td style=\"background-color:#656565; width:20%\" scope=\"row\"><span class=\"td_label\">Measure Steward</span></td>\n            <td style=\"width:80%\" colspan=\"3\" th:narrative=\"${resource.publisher}\"></td>\n        </tr>\n        <tr>\n            <td style=\"background-color:#656565; width:20%\" scope=\"row\"><span class=\"td_label\">Measure Developer</span></td>\n            <td style=\"width:80%\" colspan=\"3\" th:narrative=\"${resource.publisher}\"></td>\n        </tr> -->\n              <!-- <tr th:if=\"${resource.hasDisclaimer()}\">\n            <td style=\"background-color:#656565; width:20%\" scope=\"row\"><span class=\"td_label\">Disclaimer</span></td>\n            <td style=\"width:80%\" colspan=\"3\">\n                <div style=\"width:660px;overflow-x:hidden;overflow-y:auto\">\n                    <pre th:text=\"${resource.disclaimer}\"></pre>\n                </div>\n            </td>\n        </tr> -->\n        <tr>\n            <td scope=\"row\" style=\"background-color:#656565; width:20%\"><span class=\"td_label\">Copyright and Disclaimer Notice</span></td>\n            <td colspan=\"3\" style=\"width:80%\">\n                <div style=\"width:660px;overflow-x:hidden;overflow-y:auto\">\n                    <pre>The performance Measure is not a clinical guideline and does not establish a standard of medical care, and has not been tested for all potential applications. THE MEASURE AND SPECIFICATIONS ARE PROVIDED \"AS IS\" WITHOUT WARRANTY OF ANY KIND.\n \nDue to technical limitations, registered trademarks are indicated by (R) or [R] and unregistered trademarks are indicated by (TM) or [TM].</pre>\n                    <br/>\n                    <div>This Physician Performance Measure (Measure) and related data specifications were developed by the National Committee for Quality Assurance (NCQA). NCQA is not responsible for any use of the Measure. NCQA makes no representations, warranties, or endorsement about the quality of any organization or physician that uses or reports performance measures and NCQA has no liability to anyone who relies on such measures or specifications. NCQA holds a copyright in the Measure. The Measure can be reproduced and distributed, without modification, for noncommercial purposes (eg, use by healthcare providers in connection with their practices) without obtaining approval from NCQA. Commercial use is defined as the sale, licensing, or distribution of the Measure for commercial gain, or incorporation of the Measure into a product or service that is sold, licensed or distributed for commercial gain. All commercial uses or requests for modification must be approved by NCQA and are subject to a license at the discretion of NCQA. (C) 2012-2017 National Committee for Quality Assurance. All Rights Reserved. %26lt;br%26gt; Limited proprietary coding is contained in the Measure specifications for user convenience. Users of proprietary code sets should obtain all necessary licenses from the owners of the code sets. NCQA disclaims all liability for use or accuracy of any third party codes contained in the specifications. %26lt;br%26gt; CPT(R) contained in the Measure specifications is copyright 2004-2017 American Medical Association. LOINC(R) copyright 2004-2017 Regenstrief Institute, Inc. This material contains SNOMED Clinical Terms(R) (SNOMED CT[R] ) copyright 2004-2017 International Health Terminology Standards Development Organisation. ICD-10 copyright 2017 World Health Organization. All Rights Reserved.</div>\n                </div>\n            </td>\n        </tr>\n        <tr>\n            <td scope=\"row\" style=\"background-color:#656565; width:20%\"><span class=\"td_label\">Clinical Recommendation Statement</span></td>\n            <td colspan=\"3\" style=\"width:80%\">\n                <div style=\"width:660px;overflow-x:hidden;overflow-y:auto\"><p>A careful and ongoing evaluation of suicide risk is necessary for all patients with major depressive disorder [I] (American Psychiatric Association, 2010a, reaffirmed 2015).</p>\n<p>Such an assessment includes specific inquiry about suicidal thoughts, intent, plans, means, and behaviors; identification of specific psychiatric symptoms (e.g., psychosis, severe anxiety, substance use) or general medical conditions that may increase the likelihood of acting on suicidal ideas; assessment of past and, particularly, recent suicidal behavior; delineation of current stressors and potential protective factors (e.g., positive reasons for living, strong social support); and identification of any family history of suicide or mental illness [I] (American Psychiatric Association, 2010a, reaffirmed 2015).</p>\n<p>As part of the assessment process, impulsivity and potential for risk to others should also be evaluated, including any history of violence or violent or homicidal ideas, plans, or intentions [I] (American Psychiatric Association, 2010a, reaffirmed 2015).</p>\n<p>The patient's risk of harm to him- or herself and to others should also be monitored as treatment proceeds [I] (American Psychiatric Association, 2010a, reaffirmed 2015).</p>\n<p>Guidelines for Selecting a Treatment Setting for Patients at Risk for Suicide or Suicidal Behaviors (from American Psychiatric Association’s Practice Guideline for Assessment and Treatment of Patients With Suicidal Behaviors, 2010b):<br/>\nAdmission generally indicated<br/>\nAfter a suicide attempt or aborted suicide attempt if:</p>\n<ul>\n<li>Patient is psychotic</li>\n<li>Attempt was violent, near-lethal, or premeditated</li>\n<li>Precautions were taken to avoid rescue or discovery</li>\n<li>Persistent plan and/or intent is present</li>\n<li>Distress is increased or patient regrets surviving</li>\n<li>Patient is male, older than age 45 years, especially with new onset of psychiatric illness or suicidal thinking</li>\n<li>Patient has limited family and/or social support, including lack of stable living situation</li>\n<li>Current impulsive behavior, severe agitation, poor judgment, or refusal of help is evident</li>\n<li>Patient has change in mental status with a metabolic, toxic, infectious, or other etiology requiring further workup in a structured setting</li>\n</ul>\n<p>In the presence of suicidal ideation with:</p>\n<ul>\n<li>Specific plan with high lethality</li>\n<li>High suicidal intent</li>\n</ul>\n<p>Admission may be necessary<br/>\nAfter a suicide attempt or aborted suicide attempt, except in circumstances for which admission is generally indicated</p>\n<p>In the presence of suicidal ideation with:</p>\n<ul>\n<li>Psychosis</li>\n<li>Major psychiatric disorder</li>\n<li>Past attempts, particularly if medically serious</li>\n<li>Possibly contributing medical condition (e.g., acute neurological disorder, cancer, infection)</li>\n<li>Lack of response to or inability to cooperate with partial hospital or outpatient treatment</li>\n<li>Need for supervised setting for medication trial or ECT</li>\n<li>Need for skilled observation, clinical tests, or diagnostic assessments that require a structured setting</li>\n<li>Limited family and/or social support, including lack of stable living situation</li>\n<li>Lack of an ongoing clinician-patient relationship or lack of access to timely outpatient follow-up</li>\n<li>[Evidence of putting one's affairs in order (e.g., giving away possessions, writing a will)]</li>\n</ul>\n<p>In the absence of suicide attempts or reported suicidal ideation/plan/intent but evidence from the psychiatric evaluation and/or history from others suggests a high level of suicide risk and a recent acute increase in risk</p>\n<p>Release from emergency department with follow-up recommendations may be possible<br/>\nAfter a suicide attempt or in the presence of suicidal ideation/plan when:</p>\n<ul>\n<li>Suicidality is a reaction to precipitating events (e.g., exam failure, relationship difficulties), particularly if the patient's view of situation has changed since coming to emergency department</li>\n<li>Plan/method and intent have low lethality</li>\n<li>Patient has stable and supportive living situation</li>\n<li>Patient is able to cooperate with recommendations for follow-up, with treater contacted, if possible, if patient is currently in treatment</li>\n</ul>\n<p>Outpatient treatment may be more beneficial than hospitalization<br/>\nPatient has chronic suicidal ideation and/or self-injury without prior medically serious attempts, if a safe and supportive living situation is available and outpatient psychiatric care is ongoing.</p>\n</div>\n            </td>\n        </tr>\n        \n            <tr style=\"vertical-align: top;\">\n                <td rowspan=\"14\" scope=\"row\" style=\"background-color:#656565; width:20%\"><span class=\"td_label\">References</span></td>\n                <td colspan=\"3\" style=\"width:80%\">\n                    <div style=\"width:660px;overflow-x:hidden;overflow-y:auto\">\n                        <pre>American Diabetes Association. (2018). 9. Cardiovascular disease and risk management: Standards of medical care in diabetes 2018. Diabetes Care, 41(Suppl. 1), S86-S104.</pre>\n                    </div>\n                </td>\n            </tr>\n        \n        \n            <tr style=\"vertical-align: top;\">\n                \n                <td colspan=\"3\" style=\"width:80%\">\n                    <div style=\"width:660px;overflow-x:hidden;overflow-y:auto\">\n                        <pre>Benjamin, E. J., Blaha, M. J., Chiuve, S. E., et al. (2017). Heart disease and stroke statistics-2017 update: A report from the American Heart Association. Circulation, 135(10), e146-e603.doi: 10.1161/CIR.0000000000000485</pre>\n                    </div>\n                </td>\n            </tr>\n        \n        \n            <tr style=\"vertical-align: top;\">\n                \n                <td colspan=\"3\" style=\"width:80%\">\n                    <div style=\"width:660px;overflow-x:hidden;overflow-y:auto\">\n                        <pre>Centers for Disease Control and Prevention. (2012). Vital signs: Getting blood pressure under control. Retrieved from https://www.cdc.gov/vitalsigns/hypertension/index.html</pre>\n                    </div>\n                </td>\n            </tr>\n        \n        \n            <tr style=\"vertical-align: top;\">\n                \n                <td colspan=\"3\" style=\"width:80%\">\n                    <div style=\"width:660px;overflow-x:hidden;overflow-y:auto\">\n                        <pre>Centers for Disease Control and Prevention. Division for Heart Disease and Stroke Prevention. (2016). High blood pressure fact sheet. Retrieved from https://www.cdc.gov/dhdsp/data_statistics/fact_sheets/fs_bloodpressure.htmhttps://www.cdc.gov/dhdsp/data_statistics/fact_sheets/fs_bloodpressure.htm. </pre>\n                    </div>\n                </td>\n            </tr>\n        \n        \n            <tr style=\"vertical-align: top;\">\n                \n                <td colspan=\"3\" style=\"width:80%\">\n                    <div style=\"width:660px;overflow-x:hidden;overflow-y:auto\">\n                        <pre>Centers for Disease Control and Prevention, National Center for Health Statistics. (2015). Underlying Cause of Death 1999-2013 on CDC WONDER Online Database. Data are from the Multiple Cause of Death Files, 1999-2013, as compiled from data provided by the 57 vital statistics jurisdictions through the Vital Statistics Cooperative Program. Retrieved from http://wonder.cdc.gov/ucd-icd10.html</pre>\n                    </div>\n                </td>\n            </tr>\n        \n        \n            <tr style=\"vertical-align: top;\">\n                \n                <td colspan=\"3\" style=\"width:80%\">\n                    <div style=\"width:660px;overflow-x:hidden;overflow-y:auto\">\n                        <pre>Crim, M. T., Yoon, S. S., Ortiz, E., et al. (2012). National surveillance definitions for hypertension prevalence and control among adults. Circulation: Cardiovascular Quality and Outcomes. 2012, ;5(3), :343-–351. doi: 10.1161/ CIRCOUTCOMES.111.963439.</pre>\n                    </div>\n                </td>\n            </tr>\n        \n        \n            <tr style=\"vertical-align: top;\">\n                \n                <td colspan=\"3\" style=\"width:80%\">\n                    <div style=\"width:660px;overflow-x:hidden;overflow-y:auto\">\n                        <pre>James, P. A., Oparil, S., Carter, B. L., et al (2014). 2014 evidence-based guideline for the management of high blood pressure in adults: Report from the panel members appointed to the Eighth Joint National Committee (JNC8). JAMA. 311(5), 507-520. doi:10.1001/jama.2013.284427</pre>\n                    </div>\n                </td>\n            </tr>\n        \n        \n            <tr style=\"vertical-align: top;\">\n                \n                <td colspan=\"3\" style=\"width:80%\">\n                    <div style=\"width:660px;overflow-x:hidden;overflow-y:auto\">\n                        <pre>Moran, A. E., Odden, M. C., Thanataveerat, A., et al.Tzong KY, Rasmussen PW, Guzman D, Williams L, Bibbins-Domingo K, Coxson PG, Goldman L. (2015). Cost-effectiveness of hypertension therapy according to 2014 guidelines. [published correction appears in N Engl J. Med. 2015;372:1677]. New England Journal of Medicine,. 2015 ;372, :447-–455. doi:  10.1056/NEJMsa1406751. [published correction appears on page 1677] \nFarley TA, Dalal MA, Mostashari F, Frieden TR. Deaths preventable in the US by improvements in the use of clinical preventive services. Am J Prev Med. 2010;38:600-9.</pre>\n                    </div>\n                </td>\n            </tr>\n        \n        \n            <tr style=\"vertical-align: top;\">\n                \n                <td colspan=\"3\" style=\"width:80%\">\n                    <div style=\"width:660px;overflow-x:hidden;overflow-y:auto\">\n                        <pre>Patel, S. A., Winkel, M., Ali, M. K., et al. (2015). Cardiovascular mortality associated with 5 leading risk factors: National and state preventable fractions estimated from survey data. Annals of Internal Medicine, 163(4), :245–253. doi: 10.7326/M14-1753</pre>\n                    </div>\n                </td>\n            </tr>\n        \n        \n            <tr style=\"vertical-align: top;\">\n                \n                <td colspan=\"3\" style=\"width:80%\">\n                    <div style=\"width:660px;overflow-x:hidden;overflow-y:auto\">\n                        <pre>Qaseem, A., Wilt, T. J., Rich, R., et al. (2017). Pharmacologic treatment of hypertension in adults aged 60 years or older to higher versus lower blood pressure targets: A clinical practice guideline from the American College of Physicians and the American Academy of Family Physicians. Annals of Internal Medicine, 166(6), 430-437.</pre>\n                    </div>\n                </td>\n            </tr>\n        \n        \n            <tr style=\"vertical-align: top;\">\n                \n                <td colspan=\"3\" style=\"width:80%\">\n                    <div style=\"width:660px;overflow-x:hidden;overflow-y:auto\">\n                        <pre>SPRINT Research Group,; Wright, J. T., Jr., Williamson,  J. D., et al. (2015). A randomized trial of intensive versus standard blood-pressure control. New England Journal of Medicine, 373(22), 2103–2116.</pre>\n                    </div>\n                </td>\n            </tr>\n        \n        \n            <tr style=\"vertical-align: top;\">\n                \n                <td colspan=\"3\" style=\"width:80%\">\n                    <div style=\"width:660px;overflow-x:hidden;overflow-y:auto\">\n                        <pre>U.S. Preventive Services Task Force. (2015). Screening for high blood pressure in adults: U.S. Preventive Services Task Force recommendation statement. Annals of Internal Medicine, 163(10), 778-787.</pre>\n                    </div>\n                </td>\n            </tr>\n        \n        \n            <tr style=\"vertical-align: top;\">\n                \n                <td colspan=\"3\" style=\"width:80%\">\n                    <div style=\"width:660px;overflow-x:hidden;overflow-y:auto\">\n                        <pre>Whelton, P. K., Carey, R. M., Aronow, W. S., et al. (2017). Guideline for the prevention, detection, evaluation, and management of high blood pressure in adults: A report of the American College of Cardiology/American Heart Association Task Force on Clinical Practice Guidelines. Journal of the American College of Cardiology, . https://doi.org/10.1161/HYP.0000000000000065</pre>\n                    </div>\n                </td>\n            </tr>\n        \n        \n            <tr style=\"vertical-align: top;\">\n                \n                <td colspan=\"3\" style=\"width:80%\">\n                    <div style=\"width:660px;overflow-x:hidden;overflow-y:auto\">\n                        <pre>Yoon, S. S., Fryar, C. D., %26amp; Carroll, M. D. (2015). Hypertension prevalence and control among adults: United States, 2011-2014. NCHS Data Brief No. 220. Hyattsville, MD: National Center for Health Statistics.</pre>\n                    </div>\n                </td>\n            </tr>\n        \n        <tr>\n            <td colspan=\"4\" scope=\"row\" style=\"background-color:#656565; width:100%\"><span class=\"td_label\">Characteristics</span></td>\n        </tr>\n        <tr>\n            <td scope=\"row\" style=\"width:20%\"><span>Scoring</span></td>\n            <td colspan=\"3\" style=\"width:80%\">Proportion</td>\n        </tr>\n              <!-- <tr th:if=\"${resource.hasCompositeScoring()}\">\n            <td style=\"width:20%\" scope=\"row\"><span class=\"td_label\">Composite Scoring</span></td>\n            <td style=\"width:80%\" colspan=\"3\" th:narrative=\"${resource.compositeScoring.getText().substring(0, 1).toUpperCase() + resource.compositeScoring.getText().substring(1)}\"></td>\n        </tr> -->\n        \n            <tr style=\"vertical-align: top;\">\n                <td rowspan=\"1\" scope=\"row\" style=\"width:20%\"><span>Type</span></td>\n                <td colspan=\"3\" style=\"width:80%\">Process</td>\n            </tr>\n        \n              <!-- <tr th:if=\"${resource.hasStatus()}\" style=\"vertical-align: top;\">\n            <td style=\"background-color:#656565; width:20%\" scope=\"row\"><span class=\"td_label\">Status</span></td>\n            <td style=\"width:80%\" colspan=\"3\" th:narrative=\"${resource.status.toString().substring(0, 1).toUpperCase() + resource.status.toString().substring(1).toLowerCase()}\"></td>\n        </tr>\n        <tr th:if=\"${resource.hasPurpose()}\" style=\"vertical-align: top;\">\n            <td style=\"background-color:#656565; width:20%\" scope=\"row\"><span class=\"td_label\">Purpose</span></td>\n            <td style=\"width:80%\" colspan=\"3\" th:narrative=\"${resource.purpose}\"></td>\n        </tr>\n        <tr th:if=\"${resource.hasUsage()}\" style=\"vertical-align: top;\" >\n            <td style=\"background-color:#656565; width:20%\" scope=\"row\"><span class=\"td_label\">Usage</span></td>\n            <td style=\"width:80%\" colspan=\"3\" th:narrative=\"${resource.usage}\"></td>\n        </tr>\n        <th:block th:each=\"context, iter : ${resource.useContext}\" >\n            <tr style=\"vertical-align: top;\">\n                <td th:if=\"${iter.index == 0}\" th:rowspan=\"${iter.size}\" style=\"background-color:#656565; width:20%\" scope=\"row\"><span class=\"td_label\">Use Context</span></td>\n                <td style=\"width:80%\" colspan=\"3\" th:narrative=\"${context}\"></td>\n            </tr>\n        </th:block>\n        <th:block th:each=\"topics, iter : ${resource.topic}\" >\n            <tr style=\"vertical-align: top;\">\n                <td th:if=\"${iter.index == 0}\" th:rowspan=\"${iter.size}\" style=\"background-color:#656565; width:20%\" scope=\"row\"><span class=\"td_label\">Topic</span></td>\n                <td style=\"width:80%\" colspan=\"3\" th:narrative=\"${topics}\"></td>\n            </tr>\n        </th:block>\n        <th:block th:each=\"cont, iter : ${resource.contributor}\" >\n            <tr style=\"vertical-align: top;\">\n                <td th:if=\"${iter.index == 0}\" th:rowspan=\"${iter.size}\" style=\"background-color:#656565; width:20%\" scope=\"row\"><span class=\"td_label\">Contributor</span></td>\n                <td style=\"width:80%\" colspan=\"3\">\n                    <b><span th:narrative=\"${cont.type.toCode()}\"></span>: </b><span th:narrative=\"${cont.name}\"></span>\n                </td>\n            </tr>\n        </th:block> -->\n              <!-- <th:block th:each=\"lib, iter : ${resource.library}\" >\n            <tr style=\"vertical-align: top;\">\n                <td th:if=\"${iter.index == 0}\" th:rowspan=\"${iter.size}\" style=\"background-color:#656565; width:20%\" scope=\"row\"><span class=\"td_label\">Library</span></td>\n                <td style=\"width:80%\" colspan=\"3\">\n                    <p th:if=\"${lib.hasIdentifier()}\"><b>identifier: </b><span th:narrative=\"${lib.identifier}\"></span></p>\n                    <p th:if=\"${lib.hasReference()}\"><b>reference: </b><span th:narrative=\"${lib.reference}\"></span></p>\n                    <p th:if=\"${lib.hasDisplay()}\"><b>display: </b><span th:narrative=\"${lib.display}\"></span></p>\n                </td>\n            </tr>\n        </th:block> -->\n        \n              <!-- <tr th:if=\"${resource.hasRateAggregation()}\" >\n            <td style=\"background-color:#656565; width:20%\" scope=\"row\"><span class=\"td_label\">Rate Aggregation</span></td>\n            <td style=\"width:80%\" colspan=\"3\">\n                <div style=\"width:660px;overflow-x:hidden;overflow-y:auto\">\n                    <pre th:text=\"${resource.rateAggregation}\"></pre>\n                </div>\n            </td>\n        </tr>\n        <tr th:if=\"${resource.hasRationale()}\">\n            <td style=\"background-color:#656565; width:20%\" scope=\"row\"><span class=\"td_label\">Rationale</span></td>\n            <td style=\"width:80%\" colspan=\"3\">\n                <div style=\"width:660px;overflow-x:hidden;overflow-y:auto\">\n                    <pre th:text=\"${resource.rationale}\"></pre>\n                </div>\n            </td>\n        </tr> -->\n        <tr>\n            <td scope=\"row\" style=\"width:20%\"><span>Improvement Notation</span></td>\n            <td colspan=\"3\" style=\"width:80%\">A higher rate indicates better performance.</td>\n            \n        </tr>\n        <tr>\n            <td scope=\"row\" style=\"width:20%\"><span>Guidance</span></td>\n            <td colspan=\"3\" style=\"width:80%\">\n                <div style=\"width:660px;overflow-x:hidden;overflow-y:auto\"><p>This measure is an episode-of-care measure and should be reported for each instance of a new or recurrent episode of major depressive disorder (MDD); every new or recurrent episode will count separately in the Initial Population.</p>\n<p>As the guidelines state, it is important to assess for additional factors which may increase or decrease suicide risk, such as presence of additional symptoms (e.g., psychosis, severe anxiety, hopelessness, severe chronic pain); presence of substance abuse, history and seriousness of previous attempts, particularly, recent suicidal behavior, current stressors and potential protective factors (e.g., positive reasons for living, strong social support), family history of suicide or mental illness or recent exposure to suicide, impulsivity and potential for risk to others, including history of violence or violent or homicidal ideas, plans, or intentions, and putting one's affairs in order (e.g., giving away possessions, writing a will). In addition, although the measure focuses on the initial visit, it is critical that suicide risk be monitored especially for the 90 days following the initial visit and throughout MDD treatment.</p>\n<p>It is expected that a suicide risk assessment will be completed at the visit during which a new diagnosis is made or at the visit during which a recurrent episode is first identified (i.e., at the initial evaluation). For the purposes of this measure, an episode of major depressive disorder (MDD) would be considered to be recurrent if a patient has not had an MDD-related encounter in the past 105 days. If there is a gap of 105 or more days between visits for major depressive disorder (MDD), that would imply a recurrent episode. The 105-day look-back period is an operational provision and not a clinical recommendation, or definition of relapse, remission, or recurrence.</p>\n<p>Suicide risk assessments completed via telehealth services can also meet numerator performance.</p>\n<p>Use of a standardized tool(s) or instrument(s) to assess suicide risk will meet numerator performance. Standardized tools can be mapped to the concept \"Intervention, Performed\": \"Suicide risk assessment (procedure)\" included in the numerator logic below.</p>\n<p>The logic statement for the age requirement, as written, captures patients who turn 18 years old during the measurement period so that these patients are included in the measure, so long as the minimum criteria noted above is evaluated. To ensure all patients with major depressive disorder (MDD) are assessed for suicide risk, there are two clinical quality measures addressing suicide risk assessment; CMS 177 covers children and adolescents aged 6 through 17, and CMS 161 covers the adult population aged 18 years and older, as no individual suicide risk assessment tool or instrument would satisfy the requirements alone.</p>\n</div>\n            </td>\n        </tr>\n        <tr>\n            <td colspan=\"4\" scope=\"row\" style=\"background-color:#656565; width:100%\"><span class=\"td_label\">Definitions</span></td>\n        </tr>\n        \n        \n              <!-- <th:block th:each=\"groups, iter : ${resource.uniquePopulationGroup}\" >\n            <tr style=\"vertical-align: top;\">\n                <td style=\"background-color:#656565; width:20%\" scope=\"row\"><span class=\"td_label\" th:text=\"${groups.identifier.value}\"></span></td>\n                <td style=\"width:80%\" colspan=\"3\">\n                    <div style=\"width:660px;overflow-x:hidden;overflow-y:auto\">\n                        <pre th:text=\"${pops.description}\"></pre>\n                    </div>\n                </td>\n            </tr>\n        </th:block> -->\n    </table>\n    <table style=\"width: 60%; border-top: none; border-bottom: none\" class=\"header_table\">\n        \n    </table>\n    <table style=\"width: 60%; border-top: none;\" class=\"header_table\">\n              <!-- <th:block th:each=\"supples, iter : ${resource.supplementalData}\">\n            <tr>\n                <th th:if=\"${iter.index == 0}\" th:rowspan=\"${iter.size}\" scope=\"row\"><b>Supplemental Data:</b></th>\n                <td style=\"width:80%\" colspan=\"3\" >\n                    <p style=\"margin-bottom: 5px;\" th:narrative=\"${supples.identifier}\"></p>\n                    <p style=\"margin-bottom: 5px;\" th:each=\"uses : ${supples.usage}\">\n                        <b>usage: </b>\n                        <span th:narrative=\"${uses}\"></span>\n                    </p>\n                    <p style=\"margin-bottom: 5px;\" th:if=\"${supples.hasCriteria()}\">\n                        <b>criteria: </b>\n                        <span th:narrative=\"${supples.criteria}\"></span>\n                    </p>\n                    <p style=\"margin-bottom: 5px;\" th:if=\"${supples.hasPath()}\">\n                        <b>path: </b>\n                        <span th:narrative=\"${supples.path}\"></span>\n                    </p>\n                </td>\n            </tr>\n        </th:block> -->\n              <!-- <th:block th:each=\"param, iter : ${resource.parameter}\">\n            <tr style=\"vertical-align: top;\">\n                <th th:if=\"${iter.index == 0}\" th:rowspan=\"${iter.size}\" scope=\"row\"><b>Parameter: </b></th>\n                <td style=\"width:80%\" colspan=\"3\" >\n                    <span th:if=\"${param.hasName()}\">\n                        <b>name: </b>\n                        <span th:narrative=\"${param.name}\"></span>\n                        <br/>\n                    </span>\n                    <b>use: </b>\n                    <span th:narrative=\"${param.use.toCode()}\"></span>\n                    <br/>\n                    <span th:if=\"${param.hasMin()}\">\n                        <b>minimum cardinality: </b>\n                        <span th:narrative=\"${param.min}\"></span>\n                        <br/>\n                    </span>\n                    <span th:if=\"${param.hasMax()}\">\n                        <b>maximum cardinality: </b>\n                        <span th:narrative=\"${param.max}\"></span>\n                        <br/>\n                    </span>\n                    <b>type: </b>\n                    <span th:narrative=\"${param.type}\"></span>\n                    <br/>\n                    <span th:if=\"${param.hasDocumentation()}\">\n                        <b>documentation: </b>\n                        <span th:narrative=\"${param.documentation}\"></span>\n                        <br/>\n                    </span>\n                    <span th:if=\"${param.hasProfile()}\">\n                        <b>profile: </b>\n                        <span th:narrative=\"${param.profile}\"></span>\n                        <br/>\n                    </span>\n                    <p style=\"margin-bottom: 5px;\"></p>\n                </td>\n            </tr>\n        </th:block> -->\n              <!-- <th:block th:each=\"dataReq, iter : ${resource.dataRequirement}\">\n            <tr style=\"vertical-align: top;\">\n                    <th th:if=\"${iter.index == 0}\" th:rowspan=\"${iter.size}\" scope=\"row\" ><b>Data Requirements: </b></th>\n                    <td style=\"width:80%\" colspan=\"3\" th:narrative=\"${dataReq}\"></td>\n            </tr>\n        </th:block> -->\n    </table>\n  <h2><a name=\"toc\">Table of Contents</a></h2>\n  <ul style=\"padding-left: 50px;\">\n   <li><a href=\"#d1e405\">Population Criteria</a></li>\n   <li><a href=\"#d1e649\">Definitions</a></li>\n   <li><a href=\"#d1e650\">Functions</a></li>\n   <li><a href=\"#d1e555\">Terminology</a></li>\n   <li><a href=\"#d1e647\">Data Criteria (QDM Data Elements)</a></li>\n   <li><a href=\"#d1e767\">Supplemental Data Elements</a></li>\n   <li><a href=\"#d1e879\">Risk Adjustment Variables</a></li>\n  </ul>\n  <div style=\"float:left; background:teal; height:3px; width:80%\"></div>\n  \n    <pre><br/></pre>\n    <h3><a name=\"d1e405\" href=\"#toc\">Population Criteria</a></h3>\n    <div>\n    <ul style=\"list-style:none;padding-left:10px;\">\n        <li style=\"list-style:none;padding-left:0px;\" class=\"list-unstyled\">\n        <div class=\"treeview hover p-l-10\">\n        <ul class=\"list-unstyled\">\n        <li class=\"list-unstyled\"><input id=\"Initial Population\" type=\"checkbox\"/><label for=\"Initial Population\" class=\"list-header\"><strong>Initial Population</strong></label>\n            <ul class=\"code\">\n            <li class=\"list-unstyled\">\n            <div class=\"treeview hover p-l-10\">\n            <ul>\n                <li style=\"padding-left: 0px;\">\n                <div>\n                <pre class=\"cql-definition-body\">\"New or Recurrent Major Depressive Disorder Encounter\" NewOrRecurrentMDDEncounter\r\n\twhere Global.\"CalendarAgeInYearsAt\"(FHIRHelpers.ToDate(Patient.birthDate), start of \"Measurement Period\")%26gt;= 17</pre>\n                </div></li>\n            </ul>%26nbsp;\n            </div></li>\n            </ul></li>\n        </ul>\n        </div>\n        <div class=\"treeview hover p-l-10\">\n        <ul class=\"list-unstyled\">\n        <li class=\"list-unstyled\"><input id=\"Numerator\" type=\"checkbox\"/><label for=\"Numerator\" class=\"list-header\"><strong>Numerator</strong></label>\n            <ul class=\"code\">\n            <li class=\"list-unstyled\">\n            <div class=\"treeview hover p-l-10\">\n            <ul>\n                <li style=\"padding-left: 0px;\">\n                <div>\n                <pre class=\"cql-definition-body\">  \"New or Recurrent Major Depressive Disorder Encounter\" NewOrRecurrentMDDEncounter\r\n  \twith [\"Procedure\": \"Suicide risk assessment (procedure)\"] SuicideRiskAssessment\r\n\t  \tsuch that SuicideRiskAssessment.performed during NewOrRecurrentMDDEncounter.period\r\n        and SuicideRiskAssessment.status = 'completed'</pre>\n                </div></li>\n            </ul>%26nbsp;\n            </div></li>\n            </ul></li>\n        </ul>\n        </div>\n        <div class=\"treeview hover p-l-10\">\n        <ul class=\"list-unstyled\">\n        <li class=\"list-unstyled\"><input id=\"Denominator\" type=\"checkbox\"/><label for=\"Denominator\" class=\"list-header\"><strong>Denominator</strong></label>\n            <ul class=\"code\">\n            <li class=\"list-unstyled\">\n            <div class=\"treeview hover p-l-10\">\n            <ul>\n                <li style=\"padding-left: 0px;\">\n                <div>\n                <pre class=\"cql-definition-body\">\"Initial Population\"</pre>\n                </div></li>\n            </ul>%26nbsp;\n            </div></li>\n            </ul></li>\n        </ul>\n        </div></li>\n    </ul>\n    </div>\n\n  <h3><a name=\"d1e649\" href=\"#toc\">Definitions</a></h3>\n  <div>\n   <ul style=\"list-style:none;padding-left: 10px;\">\n    <li style=\"list-style:none;\" class=\"list-unstyled\">\n     <div>\n      <ul style=\"list-style:none;padding-left:0;\" class=\"list-unstyled\">\n       <li class=\"list-unstyled\">\n        <div class=\"treeview hover p-l-10\">\n         <input id=\"Denominator\" type=\"checkbox\"/>\n         <label for=\"Denominator\" class=\"list-header\"><strong>Denominator</strong></label>\n         <ul style=\"margin-right: 20%; opacity: 1;\" class=\"code\">\n          <li class=\"list-unstyled\">\n           <div>\n            <ul style=\"padding-left: 0px;\">\n             <li style=\"padding-left: 0px;\" class=\"list-unstyled\">\n              <div>\n               <pre class=\"cql-definition-body\">\"Initial Population\"</pre>\n              </div></li>\n            </ul>%26nbsp;\n           </div></li>\n         </ul>\n        </div></li>\n      </ul>\n     </div></li>\n   </ul>\n  </div>\n  <div>\n   <ul style=\"list-style:none;padding-left: 10px;\">\n    <li style=\"list-style:none;\" class=\"list-unstyled\">\n     <div>\n      <ul style=\"list-style:none;padding-left:0;\" class=\"list-unstyled\">\n       <li class=\"list-unstyled\">\n        <div class=\"treeview hover p-l-10\">\n         <input id=\"Initial Population\" type=\"checkbox\"/>\n         <label for=\"Initial Population\" class=\"list-header\"><strong>Initial Population</strong></label>\n         <ul style=\"margin-right: 20%; opacity: 1;\" class=\"code\">\n          <li class=\"list-unstyled\">\n           <div>\n            <ul style=\"padding-left: 0px;\">\n             <li style=\"padding-left: 0px;\" class=\"list-unstyled\">\n              <div>\n               <pre class=\"cql-definition-body\">\"New or Recurrent Major Depressive Disorder Encounter\" NewOrRecurrentMDDEncounter\r\n\twhere Global.\"CalendarAgeInYearsAt\"(FHIRHelpers.ToDate(Patient.birthDate), start of \"Measurement Period\")%26gt;= 17</pre>\n              </div></li>\n            </ul>%26nbsp;\n           </div></li>\n         </ul>\n        </div></li>\n      </ul>\n     </div></li>\n   </ul>\n  </div>\n  <div>\n   <ul style=\"list-style:none;padding-left: 10px;\">\n    <li style=\"list-style:none;\" class=\"list-unstyled\">\n     <div>\n      <ul style=\"list-style:none;padding-left:0;\" class=\"list-unstyled\">\n       <li class=\"list-unstyled\">\n        <div class=\"treeview hover p-l-10\">\n         <input id=\"Major Depressive Disorder Encounter\" type=\"checkbox\"/>\n         <label for=\"Major Depressive Disorder Encounter\" class=\"list-header\"><strong>Major Depressive Disorder Encounter</strong></label>\n         <ul style=\"margin-right: 20%; opacity: 1;\" class=\"code\">\n          <li class=\"list-unstyled\">\n           <div>\n            <ul style=\"padding-left: 0px;\">\n             <li style=\"padding-left: 0px;\" class=\"list-unstyled\">\n              <div>\n               <pre class=\"cql-definition-body\">( [\"Encounter\": \"Psych Visit - Diagnostic Evaluation\"]\r\n\tunion [\"Encounter\": \"Emergency Department Visit\"]\r\n\tunion [\"Encounter\": \"Office Visit\"]\r\n\tunion [\"Encounter\": \"Outpatient Consultation\"]\r\n\tunion [\"Encounter\": \"Psych Visit - Psychotherapy\"]\r\n\tunion [\"Encounter\": \"Psychoanalysis\"]\r\n\tunion [\"Encounter\": \"Telehealth Services\"] ) ValidEncounter\r\n\twhere ValidEncounter.status = 'finished'\r\n    and Global.EncounterDiagnosis(ValidEncounter).code in \"Major Depressive Disorder-Active\"</pre>\n              </div></li>\n            </ul>%26nbsp;\n           </div></li>\n         </ul>\n        </div></li>\n      </ul>\n     </div></li>\n   </ul>\n  </div>\n  <div>\n   <ul style=\"list-style:none;padding-left: 10px;\">\n    <li style=\"list-style:none;\" class=\"list-unstyled\">\n     <div>\n      <ul style=\"list-style:none;padding-left:0;\" class=\"list-unstyled\">\n       <li class=\"list-unstyled\">\n        <div class=\"treeview hover p-l-10\">\n         <input id=\"New or Recurrent Major Depressive Disorder Encounter\" type=\"checkbox\"/>\n         <label for=\"New or Recurrent Major Depressive Disorder Encounter\" class=\"list-header\"><strong>New or Recurrent Major Depressive Disorder Encounter</strong></label>\n         <ul style=\"margin-right: 20%; opacity: 1;\" class=\"code\">\n          <li class=\"list-unstyled\">\n           <div>\n            <ul style=\"padding-left: 0px;\">\n             <li style=\"padding-left: 0px;\" class=\"list-unstyled\">\n              <div>\n               <pre class=\"cql-definition-body\">\"Major Depressive Disorder Encounter\" NewOrRecurrentMDDEncounter\r\n\twithout \"Major Depressive Disorder Encounter\" PriorMDDEpisodeEncounter\r\n\t\tsuch that PriorMDDEpisodeEncounter !~ NewOrRecurrentMDDEncounter\r\n\t\t\tand PriorMDDEpisodeEncounter.period ends 104 days or less before day of start of NewOrRecurrentMDDEncounter.period\r\n\twhere NewOrRecurrentMDDEncounter.period during \"Measurement Period\"</pre>\n              </div></li>\n            </ul>%26nbsp;\n           </div></li>\n         </ul>\n        </div></li>\n      </ul>\n     </div></li>\n   </ul>\n  </div>\n  <div>\n   <ul style=\"list-style:none;padding-left: 10px;\">\n    <li style=\"list-style:none;\" class=\"list-unstyled\">\n     <div>\n      <ul style=\"list-style:none;padding-left:0;\" class=\"list-unstyled\">\n       <li class=\"list-unstyled\">\n        <div class=\"treeview hover p-l-10\">\n         <input id=\"Numerator\" type=\"checkbox\"/>\n         <label for=\"Numerator\" class=\"list-header\"><strong>Numerator</strong></label>\n         <ul style=\"margin-right: 20%; opacity: 1;\" class=\"code\">\n          <li class=\"list-unstyled\">\n           <div>\n            <ul style=\"padding-left: 0px;\">\n             <li style=\"padding-left: 0px;\" class=\"list-unstyled\">\n              <div>\n               <pre class=\"cql-definition-body\">  \"New or Recurrent Major Depressive Disorder Encounter\" NewOrRecurrentMDDEncounter\r\n  \twith [\"Procedure\": \"Suicide risk assessment (procedure)\"] SuicideRiskAssessment\r\n\t  \tsuch that SuicideRiskAssessment.performed during NewOrRecurrentMDDEncounter.period\r\n        and SuicideRiskAssessment.status = 'completed'</pre>\n              </div></li>\n            </ul>%26nbsp;\n           </div></li>\n         </ul>\n        </div></li>\n      </ul>\n     </div></li>\n   </ul>\n  </div>\n  <h3><a name=\"d1e650\" href=\"#toc\">Functions</a></h3>\n  \n  <h3><a name=\"d1e555\" href=\"#toc\">Terminology</a></h3>\n  <div>\n   <ul style=\"padding-left: 50px;\">\n    <li style=\"width:80%\">codesystem \"SNOMEDCT\" : 'https://snomed.info/sct'</li>\n    <li style=\"width:80%\">code \"Suicide risk assessment (procedure)\" : '225337009' from \"SNOMEDCT\" display 'Suicide risk assessment (procedure)'</li>\n    <li style=\"width:80%\">valueset \"Emergency Department Visit\" : 'http://cts.nlm.nih.gov/fhir/ValueSet/2.16.840.1.113883.3.464.1003.101.12.1010'</li>\n    <li style=\"width:80%\">valueset \"Ethnicity\" : 'http://cts.nlm.nih.gov/fhir/ValueSet/2.16.840.1.114222.4.11.837'</li>\n    <li style=\"width:80%\">valueset \"Major Depressive Disorder-Active\" : 'http://cts.nlm.nih.gov/fhir/ValueSet/2.16.840.1.113883.3.526.3.1491'</li>\n    <li style=\"width:80%\">valueset \"Office Visit\" : 'http://cts.nlm.nih.gov/fhir/ValueSet/2.16.840.1.113883.3.464.1003.101.12.1001'</li>\n    <li style=\"width:80%\">valueset \"ONC Administrative Sex\" : 'http://cts.nlm.nih.gov/fhir/ValueSet/2.16.840.1.113762.1.4.1'</li>\n    <li style=\"width:80%\">valueset \"Outpatient Consultation\" : 'http://cts.nlm.nih.gov/fhir/ValueSet/2.16.840.1.113883.3.464.1003.101.12.1008'</li>\n    <li style=\"width:80%\">valueset \"Payer\" : 'http://cts.nlm.nih.gov/fhir/ValueSet/2.16.840.1.114222.4.11.3591'</li>\n    <li style=\"width:80%\">valueset \"Psych Visit - Diagnostic Evaluation\" : 'http://cts.nlm.nih.gov/fhir/ValueSet/2.16.840.1.113883.3.526.3.1492'</li>\n    <li style=\"width:80%\">valueset \"Psych Visit - Psychotherapy\" : 'http://cts.nlm.nih.gov/fhir/ValueSet/2.16.840.1.113883.3.526.3.1496'</li>\n    <li style=\"width:80%\">valueset \"Psychoanalysis\" : 'http://cts.nlm.nih.gov/fhir/ValueSet/2.16.840.1.113883.3.526.3.1141'</li>\n    <li style=\"width:80%\">valueset \"Race\" : 'http://cts.nlm.nih.gov/fhir/ValueSet/2.16.840.1.114222.4.11.836'</li>\n    <li style=\"width:80%\">valueset \"Telehealth Services\" : 'http://cts.nlm.nih.gov/fhir/ValueSet/2.16.840.1.113883.3.464.1003.101.12.1031'</li>\n   </ul>\n  </div>\n  <h3><a name=\"d1e647\" href=\"#toc\">Data Criteria (QDM Data Elements)</a></h3>\n  <div>\n    <ul style=\"padding-left: 50px;\">\n      <li style=\"width:80%\">\"Encounter: Emergency Department Visit\" using \"Emergency Department Visit (http://cts.nlm.nih.gov/fhir/ValueSet/2.16.840.1.113883.3.464.1003.101.12.1010)</li>\n      <li style=\"width:80%\">\"Encounter: Office Visit\" using \"Office Visit (http://cts.nlm.nih.gov/fhir/ValueSet/2.16.840.1.113883.3.464.1003.101.12.1001)</li>\n      <li style=\"width:80%\">\"Encounter: Outpatient Consultation\" using \"Outpatient Consultation (http://cts.nlm.nih.gov/fhir/ValueSet/2.16.840.1.113883.3.464.1003.101.12.1008)</li>\n      <li style=\"width:80%\">\"Encounter: Psych Visit - Diagnostic Evaluation\" using \"Psych Visit - Diagnostic Evaluation (http://cts.nlm.nih.gov/fhir/ValueSet/2.16.840.1.113883.3.526.3.1492)</li>\n      <li style=\"width:80%\">\"Encounter: Psych Visit - Psychotherapy\" using \"Psych Visit - Psychotherapy (http://cts.nlm.nih.gov/fhir/ValueSet/2.16.840.1.113883.3.526.3.1496)</li>\n      <li style=\"width:80%\">\"Encounter: Psychoanalysis\" using \"Psychoanalysis (http://cts.nlm.nih.gov/fhir/ValueSet/2.16.840.1.113883.3.526.3.1141)</li>\n      <li style=\"width:80%\">\"Encounter: Telehealth Services\" using \"Telehealth Services (http://cts.nlm.nih.gov/fhir/ValueSet/2.16.840.1.113883.3.464.1003.101.12.1031)</li>\n    </ul>\n  </div>\n  <h3><a name=\"d1e767\" href=\"#toc\">Supplemental Data Elements</a></h3>\n  \n  <div>\n    <ul style=\"list-style:none;padding-left: 25px;\">\n        <li>None</li>\n    </ul>\n </div>\n  <h3><a name=\"d1e879\" href=\"#toc\">Risk Adjustment Variables</a></h3>\n  <div>\n   <ul style=\"list-style:none;padding-left: 25px;\">\n    <li>None</li>\n   </ul>\n  </div>\n  <div style=\"float:left; background:teal; height:3px; width:80%\"></div>\n  <table>\n        \n              <!-- <th:block th:each=\"con, iter : ${resource.content}\">\n            <tr th:if=\"${con.contentType == 'text/cql'}\" style=\"vertical-align: top;\">\n                <td style=\"background-color:#656565; width:20%\" scope=\"row\"><span class=\"td_label\">Content</span></td>\n                <td style=\"width:80%\" ><b>type: </b><span th:text=\"${con.contentType}\"></span></td>\n            </tr>\n            <tr th:if=\"${con.contentType == 'text/cql'}\">\n                <td style=\"width:100%\" colspan=\"2\" >\n                    <th:block th:if=\"${con.getData() != null }\" >\n                        <pre><code th:class=\"${con.contentType == 'text/cql' ? 'language-cql' : 'language-xml'}\" th:text=\"${new java.lang.String(con.getData())}\"></code></pre>\n                    </th:block>\n                    <th:block th:if=\"${con.getData() == null }\" >\n                        <span><i>%26lt;content is empty%26gt;</i></span>\n                    </th:block>\n                </td>\n            </tr>\n        </th:block > -->\n    </table>\n</div>"
        },
        "extension": [
          {
            "url": "http://hl7.org/fhir/us/cqfmeasures/StructureDefinition/cqfm-populationBasis",
            "valueCode": "boolean"
          }
        ],
        "url": "http://hl7.org/fhir/us/cqfmeasures/Measure/measure-EXM161-FHIR3-8.0.0",
        "version": "8.0.0",
        "name": "EXM161",
        "title": "Adult Major Depressive Disorder (MDD): Suicide Risk Assessment",
        "status": "active",
        "experimental": true,
        "publisher": "National Committee for Quality Assurance (NCQA)",
        "description": "Percentage of patients aged 18 years and older with a diagnosis of major depressive disorder (MDD) with a suicide risk assessment completed during the visit in which a new diagnosis or recurrent episode was identified",
        "purpose": "All patients aged 18 years and older with a diagnosis of major depressive disorder (MDD)",
        "effectivePeriod": {
          "start": "2019-01-01",
          "end": "2019-12-31"
        },
        "useContext": [
          {
            "code": {
              "code": "program"
            },
            "valueCodeableConcept": {
              "text": "eligible-provider"
            }
          }
        ],
        "jurisdiction": [
          {
            "coding": [
              {
                "system": "urn:iso:std:iso:3166",
                "code": "US"
              }
            ]
          }
        ],
        "topic": [
          {
            "coding": [
              {
                "system": "http://loinc.org",
                "code": "57024-2",
                "display": "Health Quality Measure Document"
              }
            ]
          }
        ],
        "contributor": [
          {
            "type": "author",
            "name": "National Committee for Quality Assurance"
          }
        ],
        "contact": [
          {
            "telecom": [
              {
                "system": "url",
                "value": "http://www.ncqa.org/"
              }
            ]
          }
        ],
        "copyright": "This Physician Performance Measure (Measure) and related data specifications were developed by the National Committee for Quality Assurance (NCQA). NCQA is not responsible for any use of the Measure. NCQA makes no representations, warranties, or endorsement about the quality of any organization or physician that uses or reports performance measures and NCQA has no liability to anyone who relies on such measures or specifications. NCQA holds a copyright in the Measure. The Measure can be reproduced and distributed, without modification, for noncommercial purposes (eg, use by healthcare providers in connection with their practices) without obtaining approval from NCQA. Commercial use is defined as the sale, licensing, or distribution of the Measure for commercial gain, or incorporation of the Measure into a product or service that is sold, licensed or distributed for commercial gain. All commercial uses or requests for modification must be approved by NCQA and are subject to a license at the discretion of NCQA. (C) 2012-2017 National Committee for Quality Assurance. All Rights Reserved. <br> Limited proprietary coding is contained in the Measure specifications for user convenience. Users of proprietary code sets should obtain all necessary licenses from the owners of the code sets. NCQA disclaims all liability for use or accuracy of any third party codes contained in the specifications. <br> CPT(R) contained in the Measure specifications is copyright 2004-2017 American Medical Association. LOINC(R) copyright 2004-2017 Regenstrief Institute, Inc. This material contains SNOMED Clinical Terms(R) (SNOMED CT[R] ) copyright 2004-2017 International Health Terminology Standards Development Organisation. ICD-10 copyright 2017 World Health Organization. All Rights Reserved.",
        "relatedArtifact": [
          {
            "type": "citation",
            "citation": "American Diabetes Association. (2018). 9. Cardiovascular disease and risk management: Standards of medical care in diabetes 2018. Diabetes Care, 41(Suppl. 1), S86-S104."
          },
          {
            "type": "citation",
            "citation": "Benjamin, E. J., Blaha, M. J., Chiuve, S. E., et al. (2017). Heart disease and stroke statistics-2017 update: A report from the American Heart Association. Circulation, 135(10), e146-e603.doi: 10.1161/CIR.0000000000000485"
          },
          {
            "type": "citation",
            "citation": "Centers for Disease Control and Prevention. (2012). Vital signs: Getting blood pressure under control. Retrieved from https://www.cdc.gov/vitalsigns/hypertension/index.html"
          },
          {
            "type": "citation",
            "citation": "Centers for Disease Control and Prevention. Division for Heart Disease and Stroke Prevention. (2016). High blood pressure fact sheet. Retrieved from https://www.cdc.gov/dhdsp/data_statistics/fact_sheets/fs_bloodpressure.htmhttps://www.cdc.gov/dhdsp/data_statistics/fact_sheets/fs_bloodpressure.htm. "
          },
          {
            "type": "citation",
            "citation": "Centers for Disease Control and Prevention, National Center for Health Statistics. (2015). Underlying Cause of Death 1999-2013 on CDC WONDER Online Database. Data are from the Multiple Cause of Death Files, 1999-2013, as compiled from data provided by the 57 vital statistics jurisdictions through the Vital Statistics Cooperative Program. Retrieved from http://wonder.cdc.gov/ucd-icd10.html"
          },
          {
            "type": "citation",
            "citation": "Crim, M. T., Yoon, S. S., Ortiz, E., et al. (2012). National surveillance definitions for hypertension prevalence and control among adults. Circulation: Cardiovascular Quality and Outcomes. 2012, ;5(3), :343-–351. doi: 10.1161/ CIRCOUTCOMES.111.963439."
          },
          {
            "type": "citation",
            "citation": "James, P. A., Oparil, S., Carter, B. L., et al (2014). 2014 evidence-based guideline for the management of high blood pressure in adults: Report from the panel members appointed to the Eighth Joint National Committee (JNC8). JAMA. 311(5), 507-520. doi:10.1001/jama.2013.284427"
          },
          {
            "type": "citation",
            "citation": "Moran, A. E., Odden, M. C., Thanataveerat, A., et al.Tzong KY, Rasmussen PW, Guzman D, Williams L, Bibbins-Domingo K, Coxson PG, Goldman L. (2015). Cost-effectiveness of hypertension therapy according to 2014 guidelines. [published correction appears in N Engl J. Med. 2015;372:1677]. New England Journal of Medicine,. 2015 ;372, :447-–455. doi:  10.1056/NEJMsa1406751. [published correction appears on page 1677] \nFarley TA, Dalal MA, Mostashari F, Frieden TR. Deaths preventable in the US by improvements in the use of clinical preventive services. Am J Prev Med. 2010;38:600-9."
          },
          {
            "type": "citation",
            "citation": "Patel, S. A., Winkel, M., Ali, M. K., et al. (2015). Cardiovascular mortality associated with 5 leading risk factors: National and state preventable fractions estimated from survey data. Annals of Internal Medicine, 163(4), :245–253. doi: 10.7326/M14-1753"
          },
          {
            "type": "citation",
            "citation": "Qaseem, A., Wilt, T. J., Rich, R., et al. (2017). Pharmacologic treatment of hypertension in adults aged 60 years or older to higher versus lower blood pressure targets: A clinical practice guideline from the American College of Physicians and the American Academy of Family Physicians. Annals of Internal Medicine, 166(6), 430-437."
          },
          {
            "type": "citation",
            "citation": "SPRINT Research Group,; Wright, J. T., Jr., Williamson,  J. D., et al. (2015). A randomized trial of intensive versus standard blood-pressure control. New England Journal of Medicine, 373(22), 2103–2116."
          },
          {
            "type": "citation",
            "citation": "U.S. Preventive Services Task Force. (2015). Screening for high blood pressure in adults: U.S. Preventive Services Task Force recommendation statement. Annals of Internal Medicine, 163(10), 778-787."
          },
          {
            "type": "citation",
            "citation": "Whelton, P. K., Carey, R. M., Aronow, W. S., et al. (2017). Guideline for the prevention, detection, evaluation, and management of high blood pressure in adults: A report of the American College of Cardiology/American Heart Association Task Force on Clinical Practice Guidelines. Journal of the American College of Cardiology, . https://doi.org/10.1161/HYP.0000000000000065"
          },
          {
            "type": "citation",
            "citation": "Yoon, S. S., Fryar, C. D., & Carroll, M. D. (2015). Hypertension prevalence and control among adults: United States, 2011-2014. NCHS Data Brief No. 220. Hyattsville, MD: National Center for Health Statistics."
          },
          {
            "type": "depends-on",
            "resource": {
              "reference": "Library/library-MATGlobalCommonFunctions-FHIR3-4.0.000"
            }
          },
          {
            "type": "depends-on",
            "resource": {
              "reference": "Library/library-FHIRHelpers-3.0.0"
            }
          }
        ],
        "library": [
          {
            "reference": "Library/library-EXM161-FHIR3-8.0.0"
          }
        ],
        "disclaimer": "The performance Measure is not a clinical guideline and does not establish a standard of medical care, and has not been tested for all potential applications. THE MEASURE AND SPECIFICATIONS ARE PROVIDED \"AS IS\" WITHOUT WARRANTY OF ANY KIND.\n \nDue to technical limitations, registered trademarks are indicated by (R) or [R] and unregistered trademarks are indicated by (TM) or [TM].",
        "scoring": {
          "coding": [
            {
              "system": "http://hl7.org/fhir/measure-scoring",
              "code": "proportion"
            }
          ]
        },
        "type": [
          {
            "coding": [
              {
                "system": "http://hl7.org/fhir/measure-type",
                "code": "process"
              }
            ]
          }
        ],
        "rationale": "This measure aims to improve rates of clinician assessment of suicide risk during an encounter where a new or recurrent episode of major depressive disorder is identified. In an epidemiologic study (2010) of mental illness in the United States with a large, representative sample, 69% of respondents with lifetime suicide attempts had also met diagnostic criteria for major depressive disorder. When considering other mood disorders related to depression, such as dysthymia and bipolar disorders,  this rate increases to 74% (Bolton & Robinson, 2010). In a 2014 study conducted by Ahmedani et al., 50% of individuals who completed a suicide had been seen in a health care setting within four weeks prior. Better assessment and identification of suicide risk in the health care setting should lead to improved connection to treatment and reduction in suicide attempts and deaths by suicide.",
        "clinicalRecommendationStatement": "A careful and ongoing evaluation of suicide risk is necessary for all patients with major depressive disorder [I] (American Psychiatric Association, 2010a, reaffirmed 2015).\n\nSuch an assessment includes specific inquiry about suicidal thoughts, intent, plans, means, and behaviors; identification of specific psychiatric symptoms (e.g., psychosis, severe anxiety, substance use) or general medical conditions that may increase the likelihood of acting on suicidal ideas; assessment of past and, particularly, recent suicidal behavior; delineation of current stressors and potential protective factors (e.g., positive reasons for living, strong social support); and identification of any family history of suicide or mental illness [I] (American Psychiatric Association, 2010a, reaffirmed 2015).\n\nAs part of the assessment process, impulsivity and potential for risk to others should also be evaluated, including any history of violence or violent or homicidal ideas, plans, or intentions [I] (American Psychiatric Association, 2010a, reaffirmed 2015).\n\nThe patient's risk of harm to him- or herself and to others should also be monitored as treatment proceeds [I] (American Psychiatric Association, 2010a, reaffirmed 2015).\n\nGuidelines for Selecting a Treatment Setting for Patients at Risk for Suicide or Suicidal Behaviors (from American Psychiatric Association’s Practice Guideline for Assessment and Treatment of Patients With Suicidal Behaviors, 2010b):\nAdmission generally indicated\nAfter a suicide attempt or aborted suicide attempt if:\n* Patient is psychotic\n* Attempt was violent, near-lethal, or premeditated\n* Precautions were taken to avoid rescue or discovery\n* Persistent plan and/or intent is present\n* Distress is increased or patient regrets surviving\n* Patient is male, older than age 45 years, especially with new onset of psychiatric illness or suicidal thinking\n* Patient has limited family and/or social support, including lack of stable living situation\n* Current impulsive behavior, severe agitation, poor judgment, or refusal of help is evident\n* Patient has change in mental status with a metabolic, toxic, infectious, or other etiology requiring further workup in a structured setting\n\nIn the presence of suicidal ideation with:\n* Specific plan with high lethality\n* High suicidal intent\n\nAdmission may be necessary\nAfter a suicide attempt or aborted suicide attempt, except in circumstances for which admission is generally indicated\n\nIn the presence of suicidal ideation with:\n* Psychosis\n* Major psychiatric disorder\n* Past attempts, particularly if medically serious\n* Possibly contributing medical condition (e.g., acute neurological disorder, cancer, infection)\n* Lack of response to or inability to cooperate with partial hospital or outpatient treatment\n* Need for supervised setting for medication trial or ECT\n* Need for skilled observation, clinical tests, or diagnostic assessments that require a structured setting\n* Limited family and/or social support, including lack of stable living situation\n* Lack of an ongoing clinician-patient relationship or lack of access to timely outpatient follow-up\n* [Evidence of putting one's affairs in order (e.g., giving away possessions, writing a will)]\n\nIn the absence of suicide attempts or reported suicidal ideation/plan/intent but evidence from the psychiatric evaluation and/or history from others suggests a high level of suicide risk and a recent acute increase in risk\n\nRelease from emergency department with follow-up recommendations may be possible\nAfter a suicide attempt or in the presence of suicidal ideation/plan when:\n* Suicidality is a reaction to precipitating events (e.g., exam failure, relationship difficulties), particularly if the patient's view of situation has changed since coming to emergency department\n* Plan/method and intent have low lethality\n* Patient has stable and supportive living situation\n* Patient is able to cooperate with recommendations for follow-up, with treater contacted, if possible, if patient is currently in treatment\n\nOutpatient treatment may be more beneficial than hospitalization\nPatient has chronic suicidal ideation and/or self-injury without prior medically serious attempts, if a safe and supportive living situation is available and outpatient psychiatric care is ongoing.",
        "improvementNotation": "increase",
        "guidance": "This measure is an episode-of-care measure and should be reported for each instance of a new or recurrent episode of major depressive disorder (MDD); every new or recurrent episode will count separately in the Initial Population.\n\nAs the guidelines state, it is important to assess for additional factors which may increase or decrease suicide risk, such as presence of additional symptoms (e.g., psychosis, severe anxiety, hopelessness, severe chronic pain); presence of substance abuse, history and seriousness of previous attempts, particularly, recent suicidal behavior, current stressors and potential protective factors (e.g., positive reasons for living, strong social support), family history of suicide or mental illness or recent exposure to suicide, impulsivity and potential for risk to others, including history of violence or violent or homicidal ideas, plans, or intentions, and putting one's affairs in order (e.g., giving away possessions, writing a will). In addition, although the measure focuses on the initial visit, it is critical that suicide risk be monitored especially for the 90 days following the initial visit and throughout MDD treatment.\n\nIt is expected that a suicide risk assessment will be completed at the visit during which a new diagnosis is made or at the visit during which a recurrent episode is first identified (i.e., at the initial evaluation). For the purposes of this measure, an episode of major depressive disorder (MDD) would be considered to be recurrent if a patient has not had an MDD-related encounter in the past 105 days. If there is a gap of 105 or more days between visits for major depressive disorder (MDD), that would imply a recurrent episode. The 105-day look-back period is an operational provision and not a clinical recommendation, or definition of relapse, remission, or recurrence.\n\nSuicide risk assessments completed via telehealth services can also meet numerator performance.\n\nUse of a standardized tool(s) or instrument(s) to assess suicide risk will meet numerator performance. Standardized tools can be mapped to the concept \"Intervention, Performed\": \"Suicide risk assessment (procedure)\" included in the numerator logic below.\n\nThe logic statement for the age requirement, as written, captures patients who turn 18 years old during the measurement period so that these patients are included in the measure, so long as the minimum criteria noted above is evaluated. To ensure all patients with major depressive disorder (MDD) are assessed for suicide risk, there are two clinical quality measures addressing suicide risk assessment; CMS 177 covers children and adolescents aged 6 through 17, and CMS 161 covers the adult population aged 18 years and older, as no individual suicide risk assessment tool or instrument would satisfy the requirements alone.",
        "group": [
          {
            "identifier": {
              "value": "group-1"
            },
            "population": [
              {
                "identifier": {
                  "value": "initial-population-identifier"
                },
                "code": {
                  "coding": [
                    {
                      "system": "http://terminology.hl7.org/CodeSystem/measure-population",
                      "code": "initial-population",
                      "display": "Initial Population"
                    }
                  ]
                },
                "criteria": "Initial Population"
              },
              {
                "identifier": {
                  "value": "numerator-identifier"
                },
                "code": {
                  "coding": [
                    {
                      "system": "http://terminology.hl7.org/CodeSystem/measure-population",
                      "code": "numerator",
                      "display": "Numerator"
                    }
                  ]
                },
                "criteria": "Numerator"
              },
              {
                "identifier": {
                  "value": "denominator-identifier"
                },
                "code": {
                  "coding": [
                    {
                      "system": "http://terminology.hl7.org/CodeSystem/measure-population",
                      "code": "denominator",
                      "display": "Denominator"
                    }
                  ]
                },
                "criteria": "Denominator"
              }
            ]
          }
        ]
      },
      "request": {
        "method": "PUT",
        "url": "Measure/measure-EXM161-FHIR3-8.0.0/_history/2"
      }
    },
    {
      "resource": {
        "resourceType": "Condition",
        "id": "numer-EXM161-FHIR3-8",
        "meta": {
          "profile": [
            "http://hl7.org/fhir/us/core/StructureDefinition/us-core-condition"
          ]
        },
        "verificationStatus": "confirmed",
        "category": [
          {
            "coding": [
              {
                "system": "http://terminology.hl7.org/CodeSystem/condition-category",
                "code": "encounter-diagnosis",
                "display": "Encounter Diagnosis"
              }
            ]
          }
        ],
        "code": {
          "coding": [
            {
              "system": "http://hl7.org/fhir/sid/icd-10",
              "code": "F32.0",
              "display": "Major depressive disorder, single episode, mild"
            }
          ]
        },
        "subject": {
          "reference": "Patient/numer-EXM161-FHIR3"
        }
      },
      "request": {
        "method": "PUT",
        "url": "Condition/numer-EXM161-FHIR3-8"
      }
    },
    {
      "resource": {
        "resourceType": "ValueSet",
        "id": "2.16.840.1.113883.3.464.1003.101.12.1001",
        "url": "http://cts.nlm.nih.gov/fhir/ValueSet/2.16.840.1.113883.3.464.1003.101.12.1001",
        "identifier": [
          {
            "system": "urn:ietf:rfc:3986",
            "value": "2.16.840.1.113883.3.464.1003.101.12.1001"
          }
        ],
        "version": "20180310",
        "name": "OfficeVisit",
        "title": "Office Visit",
        "status": "active",
        "publisher": "NLM",
        "compose": {
          "include": [
            {
              "system": "http://www.ama-assn.org/go/cpt",
              "version": "2018",
              "concept": [
                {
                  "code": "99201",
                  "display": "Office or other outpatient visit for the evaluation and management of a new patient, which requires these 3 key components: A problem focused history; A problem focused examination; Straightforward medical decision making. Counseling and/or coordination of care with other physicians, other qualified health care professionals, or agencies are provided consistent with the nature of the problem(s) and the patient's and/or family's needs. Usually, the presenting problem(s) are self limited or minor. Typically, 10 minutes are spent face-to-face with the patient and/or family."
                },
                {
                  "code": "99202",
                  "display": "Office or other outpatient visit for the evaluation and management of a new patient, which requires these 3 key components: An expanded problem focused history; An expanded problem focused examination; Straightforward medical decision making. Counseling and/or coordination of care with other physicians, other qualified health care professionals, or agencies are provided consistent with the nature of the problem(s) and the patient's and/or family's needs. Usually, the presenting problem(s) are of low to moderate severity. Typically, 20 minutes are spent face-to-face with the patient and/or family."
                },
                {
                  "code": "99203",
                  "display": "Office or other outpatient visit for the evaluation and management of a new patient, which requires these 3 key components: A detailed history; A detailed examination; Medical decision making of low complexity. Counseling and/or coordination of care with other physicians, other qualified health care professionals, or agencies are provided consistent with the nature of the problem(s) and the patient's and/or family's needs. Usually, the presenting problem(s) are of moderate severity. Typically, 30 minutes are spent face-to-face with the patient and/or family."
                },
                {
                  "code": "99204",
                  "display": "Office or other outpatient visit for the evaluation and management of a new patient, which requires these 3 key components: A comprehensive history; A comprehensive examination; Medical decision making of moderate complexity. Counseling and/or coordination of care with other physicians, other qualified health care professionals, or agencies are provided consistent with the nature of the problem(s) and the patient's and/or family's needs. Usually, the presenting problem(s) are of moderate to high severity. Typically, 45 minutes are spent face-to-face with the patient and/or family."
                },
                {
                  "code": "99205",
                  "display": "Office or other outpatient visit for the evaluation and management of a new patient, which requires these 3 key components: A comprehensive history; A comprehensive examination; Medical decision making of high complexity. Counseling and/or coordination of care with other physicians, other qualified health care professionals, or agencies are provided consistent with the nature of the problem(s) and the patient's and/or family's needs. Usually, the presenting problem(s) are of moderate to high severity. Typically, 60 minutes are spent face-to-face with the patient and/or family."
                },
                {
                  "code": "99212",
                  "display": "Office or other outpatient visit for the evaluation and management of an established patient, which requires at least 2 of these 3 key components: A problem focused history; A problem focused examination; Straightforward medical decision making. Counseling and/or coordination of care with other physicians, other qualified health care professionals, or agencies are provided consistent with the nature of the problem(s) and the patient's and/or family's needs. Usually, the presenting problem(s) are self limited or minor. Typically, 10 minutes are spent face-to-face with the patient and/or family."
                },
                {
                  "code": "99213",
                  "display": "Office or other outpatient visit for the evaluation and management of an established patient, which requires at least 2 of these 3 key components: An expanded problem focused history; An expanded problem focused examination; Medical decision making of low complexity. Counseling and coordination of care with other physicians, other qualified health care professionals, or agencies are provided consistent with the nature of the problem(s) and the patient's and/or family's needs. Usually, the presenting problem(s) are of low to moderate severity. Typically, 15 minutes are spent face-to-face with the patient and/or family."
                },
                {
                  "code": "99214",
                  "display": "Office or other outpatient visit for the evaluation and management of an established patient, which requires at least 2 of these 3 key components: A detailed history; A detailed examination; Medical decision making of moderate complexity. Counseling and/or coordination of care with other physicians, other qualified health care professionals, or agencies are provided consistent with the nature of the problem(s) and the patient's and/or family's needs. Usually, the presenting problem(s) are of moderate to high severity. Typically, 25 minutes are spent face-to-face with the patient and/or family."
                },
                {
                  "code": "99215",
                  "display": "Office or other outpatient visit for the evaluation and management of an established patient, which requires at least 2 of these 3 key components: A comprehensive history; A comprehensive examination; Medical decision making of high complexity. Counseling and/or coordination of care with other physicians, other qualified health care professionals, or agencies are provided consistent with the nature of the problem(s) and the patient's and/or family's needs. Usually, the presenting problem(s) are of moderate to high severity. Typically, 40 minutes are spent face-to-face with the patient and/or family."
                }
              ]
            },
            {
              "system": "http://snomed.info/sct",
              "version": "2018-03",
              "concept": [
                {
                  "code": "185463005",
                  "display": "Visit out of hours (procedure)"
                },
                {
                  "code": "185464004",
                  "display": "Out of hours visit - not night visit (procedure)"
                },
                {
                  "code": "185465003",
                  "display": "Weekend visit (procedure)"
                },
                {
                  "code": "30346009",
                  "display": "Evaluation and management of established outpatient in office or other outpatient facility (procedure)"
                },
                {
                  "code": "3391000175108",
                  "display": "Office visit for pediatric care and assessment (procedure)"
                },
                {
                  "code": "37894004",
                  "display": "Evaluation and management of new outpatient in office or other outpatient facility (procedure)"
                },
                {
                  "code": "439740005",
                  "display": "Postoperative follow-up visit (procedure)"
                }
              ]
            }
          ]
        }
      },
      "request": {
        "method": "PUT",
        "url": "ValueSet/2.16.840.1.113883.3.464.1003.101.12.1001"
      }
    },
    {
      "resource": {
        "resourceType": "ValueSet",
        "id": "2.16.840.1.113762.1.4.1111.143",
        "url": "http://cts.nlm.nih.gov/fhir/ValueSet/2.16.840.1.113762.1.4.1111.143",
        "title": "Observation Services",
        "status": "active",
        "publisher": "The Joint Commission",
        "compose": {
          "include": [
            {
              "system": "http://snomed.info/sct",
              "version": "2019-03",
              "concept": [
                {
                  "code": "448851000124103",
                  "display": "Hospital admission from observation unit (procedure)"
                },
                {
                  "code": "448951000124107",
                  "display": "Admission to observation unit (procedure)"
                },
                {
                  "code": "76464004",
                  "display": "Hospital admission, for observation (procedure)"
                }
              ]
            }
          ]
        }
      },
      "request": {
        "method": "PUT",
        "url": "ValueSet/2.16.840.1.113762.1.4.1111.143"
      }
    },
    {
      "resource": {
        "resourceType": "Encounter",
        "id": "denom-EXM161-FHIR3-2",
        "meta": {
          "profile": [
            "http://hl7.org/fhir/us/core/StructureDefinition/us-core-encounter"
          ]
        },
        "status": "finished",
        "type": [
          {
            "coding": [
              {
                "system": "http://www.ama-assn.org/go/cpt",
                "code": "90791",
                "display": "Psychiatric diagnostic evaluation"
              }
            ]
          }
        ],
        "subject": {
          "reference": "Patient/denom-EXM161-FHIR3"
        },
        "period": {
          "start": "2019-08-21T00:00:00-06:00",
          "end": "2019-12-19T08:15:00-07:00"
        },
        "diagnosis": [
          {
            "condition": {
              "reference": "Condition/denom-EXM161-FHIR3-8"
            },
            "role": {
              "coding": [
                {
                  "system": "http://hl7.org/fhir/diagnosis-role",
                  "code": "billing",
                  "display": "Billing"
                }
              ]
            },
            "rank": 1
          }
        ]
      },
      "request": {
        "method": "PUT",
        "url": "Encounter/denom-EXM161-FHIR3-2"
      }
    },
    {
      "resource": {
        "resourceType": "ValueSet",
        "id": "2.16.840.1.113762.1.4.1",
        "url": "http://cts.nlm.nih.gov/fhir/ValueSet/2.16.840.1.113762.1.4.1",
        "identifier": [
          {
            "system": "urn:ietf:rfc:3986",
            "value": "2.16.840.1.113762.1.4.1"
          }
        ],
        "version": "20150331",
        "name": "ONCAdministrativeSex",
        "title": "ONC Administrative Sex",
        "status": "active",
        "publisher": "NLM",
        "compose": {
          "include": [
            {
              "system": "http://hl7.org/fhir/v3/AdministrativeGender",
              "version": "HL7V3.0_2017-07",
              "concept": [
                {
                  "code": "F",
                  "display": "Female"
                },
                {
                  "code": "M",
                  "display": "Male"
                }
              ]
            }
          ]
        }
      },
      "request": {
        "method": "PUT",
        "url": "ValueSet/2.16.840.1.113762.1.4.1"
      }
    },
    {
      "resource": {
        "resourceType": "ValueSet",
        "id": "2.16.840.1.113883.3.464.1003.101.12.1008",
        "url": "http://cts.nlm.nih.gov/fhir/ValueSet/2.16.840.1.113883.3.464.1003.101.12.1008",
        "identifier": [
          {
            "system": "urn:ietf:rfc:3986",
            "value": "2.16.840.1.113883.3.464.1003.101.12.1008"
          }
        ],
        "version": "20180310",
        "name": "OutpatientConsultation",
        "title": "Outpatient Consultation",
        "status": "active",
        "publisher": "NLM",
        "compose": {
          "include": [
            {
              "system": "http://www.ama-assn.org/go/cpt",
              "version": "2018",
              "concept": [
                {
                  "code": "99241",
                  "display": "Office consultation for a new or established patient, which requires these 3 key components: A problem focused history; A problem focused examination; and Straightforward medical decision making. Counseling and/or coordination of care with other physicians, other qualified health care professionals, or agencies are provided consistent with the nature of the problem(s) and the patient's and/or family's needs. Usually, the presenting problem(s) are self limited or minor. Typically, 15 minutes are spent face-to-face with the patient and/or family."
                },
                {
                  "code": "99242",
                  "display": "Office consultation for a new or established patient, which requires these 3 key components: An expanded problem focused history; An expanded problem focused examination; and Straightforward medical decision making. Counseling and/or coordination of care with other physicians, other qualified health care professionals, or agencies are provided consistent with the nature of the problem(s) and the patient's and/or family's needs. Usually, the presenting problem(s) are of low severity. Typically, 30 minutes are spent face-to-face with the patient and/or family."
                },
                {
                  "code": "99243",
                  "display": "Office consultation for a new or established patient, which requires these 3 key components: A detailed history; A detailed examination; and Medical decision making of low complexity. Counseling and/or coordination of care with other physicians, other qualified health care professionals, or agencies are provided consistent with the nature of the problem(s) and the patient's and/or family's needs. Usually, the presenting problem(s) are of moderate severity. Typically, 40 minutes are spent face-to-face with the patient and/or family."
                },
                {
                  "code": "99244",
                  "display": "Office consultation for a new or established patient, which requires these 3 key components: A comprehensive history; A comprehensive examination; and Medical decision making of moderate complexity. Counseling and/or coordination of care with other physicians, other qualified health care professionals, or agencies are provided consistent with the nature of the problem(s) and the patient's and/or family's needs. Usually, the presenting problem(s) are of moderate to high severity. Typically, 60 minutes are spent face-to-face with the patient and/or family."
                },
                {
                  "code": "99245",
                  "display": "Office consultation for a new or established patient, which requires these 3 key components: A comprehensive history; A comprehensive examination; and Medical decision making of high complexity. Counseling and/or coordination of care with other physicians, other qualified health care professionals, or agencies are provided consistent with the nature of the problem(s) and the patient's and/or family's needs. Usually, the presenting problem(s) are of moderate to high severity. Typically, 80 minutes are spent face-to-face with the patient and/or family."
                }
              ]
            },
            {
              "system": "http://snomed.info/sct",
              "version": "2018-03",
              "concept": [
                {
                  "code": "17436001",
                  "display": "Medical consultation with outpatient (procedure)"
                },
                {
                  "code": "281036007",
                  "display": "Follow-up consultation (procedure)"
                },
                {
                  "code": "77406008",
                  "display": "Confirmatory medical consultation (procedure)"
                }
              ]
            }
          ]
        }
      },
      "request": {
        "method": "PUT",
        "url": "ValueSet/2.16.840.1.113883.3.464.1003.101.12.1008"
      }
    },
    {
      "resource": {
        "resourceType": "ValueSet",
        "id": "2.16.840.1.113883.3.526.3.1141",
        "url": "http://cts.nlm.nih.gov/fhir/ValueSet/2.16.840.1.113883.3.526.3.1141",
        "identifier": [
          {
            "system": "urn:ietf:rfc:3986",
            "value": "2.16.840.1.113883.3.526.3.1141"
          }
        ],
        "version": "20170504",
        "name": "Psychoanalysis",
        "title": "Psychoanalysis",
        "status": "active",
        "publisher": "NLM",
        "compose": {
          "include": [
            {
              "system": "http://www.ama-assn.org/go/cpt",
              "version": "2018",
              "concept": [
                {
                  "code": "90845",
                  "display": "Psychoanalysis"
                }
              ]
            }
          ]
        }
      },
      "request": {
        "method": "PUT",
        "url": "ValueSet/2.16.840.1.113883.3.526.3.1141"
      }
    },
    {
      "resource": {
        "resourceType": "Procedure",
        "id": "numer-EXM161-FHIR3-5",
        "meta": {
          "profile": [
            "http://hl7.org/fhir/us/core/StructureDefinition/us-core-procedure"
          ]
        },
        "status": "completed",
        "code": {
          "coding": [
            {
              "system": "https://snomed.info/sct",
              "code": "225337009",
              "display": "Suicide risk assessment (procedure)"
            }
          ]
        },
        "subject": {
          "reference": "Patient/numer-EXM161-FHIR3"
        },
        "performedPeriod": {
          "start": "2019-08-24T00:00:00-06:00",
          "end": "2019-10-19T08:15:00-07:00"
        }
      },
      "request": {
        "method": "PUT",
        "url": "Procedure/numer-EXM161-FHIR3-5"
      }
    },
    {
      "resource": {
        "resourceType": "MeasureReport",
        "id": "measurereport-denom-EXM161-FHIR3",
        "contained": [
          {
            "resourceType": "Bundle",
            "id": "28647018-258c-452d-a93a-484b46694b41",
            "type": "collection",
            "entry": [
              {
                "fullUrl": "Condition/denom-EXM161-FHIR3-8",
                "resource": {
                  "resourceType": "Condition",
                  "id": "denom-EXM161-FHIR3-8",
                  "meta": {
                    "versionId": "1",
                    "lastUpdated": "2019-12-18T11:39:26.607-07:00",
                    "profile": [
                      "http://hl7.org/fhir/us/core/StructureDefinition/us-core-condition"
                    ]
                  },
                  "verificationStatus": "confirmed",
                  "category": [
                    {
                      "coding": [
                        {
                          "system": "http://terminology.hl7.org/CodeSystem/condition-category",
                          "code": "encounter-diagnosis",
                          "display": "Encounter Diagnosis"
                        }
                      ]
                    }
                  ],
                  "code": {
                    "coding": [
                      {
                        "system": "http://hl7.org/fhir/sid/icd-10",
                        "code": "F32.0",
                        "display": "Major depressive disorder, single episode, mild"
                      }
                    ]
                  },
                  "subject": {
                    "reference": "Patient/denom-EXM161-FHIR3"
                  }
                }
              },
              {
                "fullUrl": "Patient/denom-EXM161-FHIR3",
                "resource": {
                  "resourceType": "Patient",
                  "id": "denom-EXM161-FHIR3",
                  "meta": {
                    "versionId": "1",
                    "lastUpdated": "2019-12-18T11:39:26.607-07:00",
                    "profile": [
                      "http://hl7.org/fhir/us/core/StructureDefinition/us-core-patient"
                    ]
                  },
                  "text": {
                    "status": "generated",
                    "div": "<div xmlns=\"http://www.w3.org/1999/xhtml\"><div class=\"hapiHeaderText\">Rick <b>JONES </b></div><table class=\"hapiPropertyTable\"><tbody><tr><td>Identifier</td><td>9999999910</td></tr><tr><td>Date of birth</td><td><span>05 November 1955</span></td></tr></tbody></table></div>"
                  },
                  "extension": [
                    {
                      "url": "http://hl7.org/fhir/us/core/StructureDefinition/us-core-race",
                      "extension": [
                        {
                          "url": "ombCategory",
                          "valueCoding": {
                            "system": "urn:oid:2.16.840.1.113883.6.238",
                            "code": "2054-5",
                            "display": "Black or African American"
                          }
                        }
                      ]
                    },
                    {
                      "url": "http://hl7.org/fhir/us/core/StructureDefinition/us-core-ethnicity",
                      "extension": [
                        {
                          "url": "ombCategory",
                          "valueCoding": {
                            "system": "urn:oid:2.16.840.1.113883.6.238",
                            "code": "2135-2",
                            "display": "Hispanic or Latino"
                          }
                        }
                      ]
                    }
                  ],
                  "identifier": [
                    {
                      "use": "usual",
                      "type": {
                        "coding": [
                          {
                            "system": "http://terminology.hl7.org/CodeSystem/v2-0203",
                            "code": "MR",
                            "display": "Medical Record Number"
                          }
                        ]
                      },
                      "system": "http://hospital.smarthealthit.org",
                      "value": "9999999910"
                    }
                  ],
                  "name": [
                    {
                      "family": "Jones",
                      "given": [
                        "Rick"
                      ]
                    }
                  ],
                  "gender": "male",
                  "birthDate": "1955-11-05"
                }
              },
              {
                "fullUrl": "Encounter/denom-EXM161-FHIR3-2",
                "resource": {
                  "resourceType": "Encounter",
                  "id": "denom-EXM161-FHIR3-2",
                  "meta": {
                    "versionId": "1",
                    "lastUpdated": "2019-12-18T11:39:26.607-07:00",
                    "profile": [
                      "http://hl7.org/fhir/us/core/StructureDefinition/us-core-encounter"
                    ]
                  },
                  "status": "finished",
                  "type": [
                    {
                      "coding": [
                        {
                          "system": "http://www.ama-assn.org/go/cpt",
                          "code": "90791",
                          "display": "Psychiatric diagnostic evaluation"
                        }
                      ]
                    }
                  ],
                  "subject": {
                    "reference": "Patient/denom-EXM161-FHIR3"
                  },
                  "period": {
                    "start": "2019-08-21T00:00:00-06:00",
                    "end": "2019-12-19T08:15:00-07:00"
                  },
                  "diagnosis": [
                    {
                      "condition": {
                        "reference": "Condition/denom-EXM161-FHIR3-8"
                      },
                      "role": {
                        "coding": [
                          {
                            "system": "http://hl7.org/fhir/diagnosis-role",
                            "code": "billing",
                            "display": "Billing"
                          }
                        ]
                      },
                      "rank": 1
                    }
                  ]
                }
              },
              {
                "fullUrl": "4b4c698b-6927-4ba3-8f58-76a56c56b2b0",
                "resource": {
                  "resourceType": "List",
                  "id": "4b4c698b-6927-4ba3-8f58-76a56c56b2b0",
                  "title": "initial-population",
                  "entry": [
                    {
                      "item": {
                        "reference": "denom-EXM161-FHIR3-8"
                      }
                    },
                    {
                      "item": {
                        "reference": "denom-EXM161-FHIR3"
                      }
                    },
                    {
                      "item": {
                        "reference": "denom-EXM161-FHIR3-2"
                      }
                    }
                  ]
                }
              }
            ]
          }
        ],
        "status": "complete",
        "type": "individual",
        "measure": {
          "reference": "Measure/measure-EXM161-FHIR3-8.0.0"
        },
        "patient": {
          "reference": "Patient/denom-EXM161-FHIR3"
        },
        "period": {
          "start": "2019-01-01T00:00:00-07:00",
          "end": "2019-12-31T00:00:00-07:00"
        },
        "group": [
          {
            "identifier": {
              "value": "group-1"
            },
            "population": [
              {
                "identifier": {
                  "value": "initial-population-identifier"
                },
                "code": {
                  "coding": [
                    {
                      "system": "http://terminology.hl7.org/CodeSystem/measure-population",
                      "code": "initial-population",
                      "display": "Initial Population"
                    }
                  ]
                },
                "count": 1
              },
              {
                "identifier": {
                  "value": "numerator-identifier"
                },
                "code": {
                  "coding": [
                    {
                      "system": "http://terminology.hl7.org/CodeSystem/measure-population",
                      "code": "numerator",
                      "display": "Numerator"
                    }
                  ]
                },
                "count": 0
              },
              {
                "identifier": {
                  "value": "denominator-identifier"
                },
                "code": {
                  "coding": [
                    {
                      "system": "http://terminology.hl7.org/CodeSystem/measure-population",
                      "code": "denominator",
                      "display": "Denominator"
                    }
                  ]
                },
                "count": 1
              }
            ],
            "measureScore": 0.0
          }
        ],
        "evaluatedResources": {
          "reference": "#28647018-258c-452d-a93a-484b46694b41"
        }
      },
      "request": {
        "method": "PUT",
        "url": "MeasureReport/measurereport-denom-EXM161-FHIR3"
      }
    },
    {
      "resource": {
        "resourceType": "ValueSet",
        "id": "2.16.840.1.114222.4.11.3591",
        "url": "http://cts.nlm.nih.gov/fhir/ValueSet/2.16.840.1.114222.4.11.3591",
        "identifier": [
          {
            "system": "urn:ietf:rfc:3986",
            "value": "2.16.840.1.114222.4.11.3591"
          }
        ],
        "version": "20180718",
        "name": "Payer",
        "title": "Payer",
        "status": "active",
        "publisher": "NLM",
        "compose": {
          "include": [
            {
              "system": "http://www.phdsc.org/standards/pdfs/SourceofPaymentTypologyVersion6FINALSeptember2015.pdf",
              "version": "8.0",
              "concept": [
                {
                  "code": "1",
                  "display": "MEDICARE"
                },
                {
                  "code": "11",
                  "display": "Medicare (Managed Care)"
                },
                {
                  "code": "111",
                  "display": "Medicare HMO"
                },
                {
                  "code": "112",
                  "display": "Medicare PPO"
                },
                {
                  "code": "113",
                  "display": "Medicare POS"
                },
                {
                  "code": "119",
                  "display": "Medicare Managed Care Other"
                },
                {
                  "code": "12",
                  "display": "Medicare (Non-managed Care)"
                },
                {
                  "code": "121",
                  "display": "Medicare FFS"
                },
                {
                  "code": "122",
                  "display": "Medicare Drug Benefit"
                },
                {
                  "code": "123",
                  "display": "Medicare Medical Savings Account (MSA)"
                },
                {
                  "code": "129",
                  "display": "Medicare Non-managed Care Other"
                },
                {
                  "code": "13",
                  "display": "Medicare Hospice"
                },
                {
                  "code": "14",
                  "display": "Dual Eligibility Medicare/Medicaid Organization"
                },
                {
                  "code": "19",
                  "display": "Medicare Other"
                },
                {
                  "code": "191",
                  "display": "Medicare Pharmacy Benefit Manager"
                },
                {
                  "code": "2",
                  "display": "MEDICAID"
                },
                {
                  "code": "21",
                  "display": "Medicaid (Managed Care)"
                },
                {
                  "code": "211",
                  "display": "Medicaid HMO"
                },
                {
                  "code": "212",
                  "display": "Medicaid PPO"
                },
                {
                  "code": "213",
                  "display": "Medicaid PCCM (Primary Care Case Management)"
                },
                {
                  "code": "219",
                  "display": "Medicaid Managed Care Other"
                },
                {
                  "code": "22",
                  "display": "Medicaid (Non-managed Care Plan)"
                },
                {
                  "code": "23",
                  "display": "Medicaid/SCHIP"
                },
                {
                  "code": "25",
                  "display": "Medicaid - Out of State"
                },
                {
                  "code": "26",
                  "display": "Medicaid -- Long Term Care"
                },
                {
                  "code": "29",
                  "display": "Medicaid Other"
                },
                {
                  "code": "291",
                  "display": "Medicaid Pharmacy Benefit Manager"
                },
                {
                  "code": "299",
                  "display": "Medicaid - Dental"
                },
                {
                  "code": "3",
                  "display": "OTHER GOVERNMENT (Federal/State/Local) (excluding Department of Corrections)"
                },
                {
                  "code": "31",
                  "display": "Department of Defense"
                },
                {
                  "code": "311",
                  "display": "TRICARE (CHAMPUS)"
                },
                {
                  "code": "3111",
                  "display": "TRICARE Prime--HMO"
                },
                {
                  "code": "3112",
                  "display": "TRICARE Extra--PPO"
                },
                {
                  "code": "3113",
                  "display": "TRICARE Standard - Fee For Service"
                },
                {
                  "code": "3114",
                  "display": "TRICARE For Life--Medicare Supplement"
                },
                {
                  "code": "3115",
                  "display": "TRICARE Reserve Select"
                },
                {
                  "code": "3116",
                  "display": "Uniformed Services Family Health Plan (USFHP) -- HMO"
                },
                {
                  "code": "3119",
                  "display": "Department of Defense - (other)"
                },
                {
                  "code": "312",
                  "display": "Military Treatment Facility"
                },
                {
                  "code": "3121",
                  "display": "Enrolled Prime--HMO"
                },
                {
                  "code": "3122",
                  "display": "Non-enrolled Space Available"
                },
                {
                  "code": "3123",
                  "display": "TRICARE For Life (TFL)"
                },
                {
                  "code": "313",
                  "display": "Dental --Stand Alone"
                },
                {
                  "code": "32",
                  "display": "Department of Veterans Affairs"
                },
                {
                  "code": "321",
                  "display": "Veteran care--Care provided to Veterans"
                },
                {
                  "code": "3211",
                  "display": "Direct Care--Care provided in VA facilities"
                },
                {
                  "code": "3212",
                  "display": "Indirect Care--Care provided outside VA facilities"
                },
                {
                  "code": "32121",
                  "display": "Fee Basis"
                },
                {
                  "code": "32122",
                  "display": "Foreign Fee/Foreign Medical Program (FMP)"
                },
                {
                  "code": "32123",
                  "display": "Contract Nursing Home/Community Nursing Home"
                },
                {
                  "code": "32124",
                  "display": "State Veterans Home"
                },
                {
                  "code": "32125",
                  "display": "Sharing Agreements"
                },
                {
                  "code": "32126",
                  "display": "Other Federal Agency"
                },
                {
                  "code": "32127",
                  "display": "Dental Care"
                },
                {
                  "code": "32128",
                  "display": "Vision Care"
                },
                {
                  "code": "322",
                  "display": "Non-veteran care"
                },
                {
                  "code": "3221",
                  "display": "Civilian Health and Medical Program for the VA (CHAMPVA)"
                },
                {
                  "code": "3222",
                  "display": "Spina Bifida Health Care Program (SB)"
                },
                {
                  "code": "3223",
                  "display": "Children of Women Vietnam Veterans (CWVV)"
                },
                {
                  "code": "3229",
                  "display": "Other non-veteran care"
                },
                {
                  "code": "33",
                  "display": "Indian Health Service or Tribe"
                },
                {
                  "code": "331",
                  "display": "Indian Health Service -- Regular"
                },
                {
                  "code": "332",
                  "display": "Indian Health Service -- Contract"
                },
                {
                  "code": "333",
                  "display": "Indian Health Service - Managed Care"
                },
                {
                  "code": "334",
                  "display": "Indian Tribe - Sponsored Coverage"
                },
                {
                  "code": "34",
                  "display": "HRSA Program"
                },
                {
                  "code": "341",
                  "display": "Title V (MCH Block Grant)"
                },
                {
                  "code": "342",
                  "display": "Migrant Health Program"
                },
                {
                  "code": "343",
                  "display": "Ryan White Act"
                },
                {
                  "code": "349",
                  "display": "Other"
                },
                {
                  "code": "35",
                  "display": "Black Lung"
                },
                {
                  "code": "36",
                  "display": "State Government"
                },
                {
                  "code": "361",
                  "display": "State SCHIP program (codes for individual states)"
                },
                {
                  "code": "362",
                  "display": "Specific state programs (list/ local code)"
                },
                {
                  "code": "369",
                  "display": "State, not otherwise specified (other state)"
                },
                {
                  "code": "37",
                  "display": "Local Government"
                },
                {
                  "code": "371",
                  "display": "Local - Managed care"
                },
                {
                  "code": "3711",
                  "display": "HMO"
                },
                {
                  "code": "3712",
                  "display": "PPO"
                },
                {
                  "code": "3713",
                  "display": "POS"
                },
                {
                  "code": "372",
                  "display": "FFS/Indemnity"
                },
                {
                  "code": "379",
                  "display": "Local, not otherwise specified (other local, county)"
                },
                {
                  "code": "38",
                  "display": "Other Government (Federal, State, Local not specified)"
                },
                {
                  "code": "381",
                  "display": "Federal, State, Local not specified managed care"
                },
                {
                  "code": "3811",
                  "display": "Federal, State, Local not specified - HMO"
                },
                {
                  "code": "3812",
                  "display": "Federal, State, Local not specified - PPO"
                },
                {
                  "code": "3813",
                  "display": "Federal, State, Local not specified - POS"
                },
                {
                  "code": "3819",
                  "display": "Federal, State, Local not specified - not specified managed care"
                },
                {
                  "code": "382",
                  "display": "Federal, State, Local not specified - FFS"
                },
                {
                  "code": "389",
                  "display": "Federal, State, Local not specified - Other"
                },
                {
                  "code": "39",
                  "display": "Other Federal"
                },
                {
                  "code": "391",
                  "display": "Federal Employee Health Plan - Use when known"
                },
                {
                  "code": "4",
                  "display": "DEPARTMENTS OF CORRECTIONS"
                },
                {
                  "code": "41",
                  "display": "Corrections Federal"
                },
                {
                  "code": "42",
                  "display": "Corrections State"
                },
                {
                  "code": "43",
                  "display": "Corrections Local"
                },
                {
                  "code": "44",
                  "display": "Corrections Unknown Level"
                },
                {
                  "code": "5",
                  "display": "PRIVATE HEALTH INSURANCE"
                },
                {
                  "code": "51",
                  "display": "Managed Care (Private)"
                },
                {
                  "code": "511",
                  "display": "Commercial Managed Care - HMO"
                },
                {
                  "code": "512",
                  "display": "Commercial Managed Care - PPO"
                },
                {
                  "code": "513",
                  "display": "Commercial Managed Care - POS"
                },
                {
                  "code": "514",
                  "display": "Exclusive Provider Organization"
                },
                {
                  "code": "515",
                  "display": "Gatekeeper PPO (GPPO)"
                },
                {
                  "code": "516",
                  "display": "Commercial Managed Care - Pharmacy Benefit Manager"
                },
                {
                  "code": "517",
                  "display": "Commercial Managed Care - Dental"
                },
                {
                  "code": "519",
                  "display": "Managed Care, Other (non HMO)"
                },
                {
                  "code": "52",
                  "display": "Private Health Insurance - Indemnity"
                },
                {
                  "code": "521",
                  "display": "Commercial Indemnity"
                },
                {
                  "code": "522",
                  "display": "Self-insured (ERISA) Administrative Services Only (ASO) plan"
                },
                {
                  "code": "523",
                  "display": "Medicare supplemental policy (as second payer)"
                },
                {
                  "code": "524",
                  "display": "Indemnity Insurance - Dental"
                },
                {
                  "code": "529",
                  "display": "Private health insurance--other commercial Indemnity"
                },
                {
                  "code": "53",
                  "display": "Managed Care (private) or private health insurance (indemnity), not otherwise specified"
                },
                {
                  "code": "54",
                  "display": "Organized Delivery System"
                },
                {
                  "code": "55",
                  "display": "Small Employer Purchasing Group"
                },
                {
                  "code": "56",
                  "display": "Specialized Stand Alone Plan"
                },
                {
                  "code": "561",
                  "display": "Dental"
                },
                {
                  "code": "562",
                  "display": "Vision"
                },
                {
                  "code": "59",
                  "display": "Other Private Insurance"
                },
                {
                  "code": "6",
                  "display": "BLUE CROSS/BLUE SHIELD"
                },
                {
                  "code": "61",
                  "display": "BC Managed Care"
                },
                {
                  "code": "611",
                  "display": "BC Managed Care -- HMO"
                },
                {
                  "code": "612",
                  "display": "BC Managed Care -- PPO"
                },
                {
                  "code": "613",
                  "display": "BC Managed Care -- POS"
                },
                {
                  "code": "614",
                  "display": "BC Managed Care - Dental"
                },
                {
                  "code": "619",
                  "display": "BC Managed Care -- Other"
                },
                {
                  "code": "62",
                  "display": "BC Insurance Indemnity"
                },
                {
                  "code": "621",
                  "display": "BC Indemnity"
                },
                {
                  "code": "622",
                  "display": "BC Self-insured (ERISA) Administrative Services Only (ASO)Plan"
                },
                {
                  "code": "623",
                  "display": "BC Medicare Supplemental Plan"
                },
                {
                  "code": "629",
                  "display": "BC Indemnity - Dental"
                },
                {
                  "code": "7",
                  "display": "MANAGED CARE, UNSPECIFIED (to be used only if one can't distinguish public from private)"
                },
                {
                  "code": "71",
                  "display": "HMO"
                },
                {
                  "code": "72",
                  "display": "PPO"
                },
                {
                  "code": "73",
                  "display": "POS"
                },
                {
                  "code": "79",
                  "display": "Other Managed Care"
                },
                {
                  "code": "8",
                  "display": "NO PAYMENT from an Organization/Agency/Program/Private Payer Listed"
                },
                {
                  "code": "81",
                  "display": "Self-pay (Includes applicants for insurance and Medicaid applicants)"
                },
                {
                  "code": "82",
                  "display": "No Charge"
                },
                {
                  "code": "821",
                  "display": "Charity"
                },
                {
                  "code": "822",
                  "display": "Professional Courtesy"
                },
                {
                  "code": "823",
                  "display": "Research/Clinical Trial"
                },
                {
                  "code": "83",
                  "display": "Refusal to Pay/Bad Debt"
                },
                {
                  "code": "84",
                  "display": "Hill Burton Free Care"
                },
                {
                  "code": "85",
                  "display": "Research/Donor"
                },
                {
                  "code": "89",
                  "display": "No Payment, Other"
                },
                {
                  "code": "9",
                  "display": "MISCELLANEOUS/OTHER"
                },
                {
                  "code": "91",
                  "display": "Foreign National"
                },
                {
                  "code": "92",
                  "display": "Other (Non-government)"
                },
                {
                  "code": "93",
                  "display": "Disability Insurance"
                },
                {
                  "code": "94",
                  "display": "Long-term Care Insurance"
                },
                {
                  "code": "95",
                  "display": "Worker's Compensation"
                },
                {
                  "code": "951",
                  "display": "Worker's Comp HMO"
                },
                {
                  "code": "953",
                  "display": "Worker's Comp Fee-for-Service"
                },
                {
                  "code": "954",
                  "display": "Worker's Comp Other Managed Care"
                },
                {
                  "code": "959",
                  "display": "Worker's Comp, Other unspecified"
                },
                {
                  "code": "96",
                  "display": "Auto Insurance (includes no fault)"
                },
                {
                  "code": "97",
                  "display": "Legal Liability / Liability Insurance"
                },
                {
                  "code": "98",
                  "display": "Other specified but not otherwise classifiable (includes Hospice - Unspecified plan)"
                },
                {
                  "code": "99",
                  "display": "No Typology Code available for payment source"
                },
                {
                  "code": "9999",
                  "display": "Unavailable / No Payer Specified / Blank"
                }
              ]
            }
          ]
        }
      },
      "request": {
        "method": "PUT",
        "url": "ValueSet/2.16.840.1.114222.4.11.3591"
      }
    },
    {
      "resource": {
        "resourceType": "Patient",
        "id": "denom-EXM161-FHIR3",
        "meta": {
          "profile": [
            "http://hl7.org/fhir/us/core/StructureDefinition/us-core-patient"
          ]
        },
        "extension": [
          {
            "url": "http://hl7.org/fhir/us/core/StructureDefinition/us-core-race",
            "extension": [
              {
                "url": "ombCategory",
                "valueCoding": {
                  "system": "urn:oid:2.16.840.1.113883.6.238",
                  "code": "2054-5",
                  "display": "Black or African American"
                }
              }
            ]
          },
          {
            "url": "http://hl7.org/fhir/us/core/StructureDefinition/us-core-ethnicity",
            "extension": [
              {
                "url": "ombCategory",
                "valueCoding": {
                  "system": "urn:oid:2.16.840.1.113883.6.238",
                  "code": "2135-2",
                  "display": "Hispanic or Latino"
                }
              }
            ]
          }
        ],
        "identifier": [
          {
            "use": "usual",
            "type": {
              "coding": [
                {
                  "system": "http://terminology.hl7.org/CodeSystem/v2-0203",
                  "code": "MR",
                  "display": "Medical Record Number"
                }
              ]
            },
            "system": "http://hospital.smarthealthit.org",
            "value": "9999999910"
          }
        ],
        "name": [
          {
            "family": "Jones",
            "given": [
              "Rick"
            ]
          }
        ],
        "gender": "male",
        "birthDate": "1955-11-05"
      },
      "request": {
        "method": "PUT",
        "url": "Patient/denom-EXM161-FHIR3"
      }
    },
    {
      "resource": {
        "resourceType": "Library",
        "id": "library-EXM161-FHIR3-8.0.0",
        "text": {
          "status": "generated",
          "div": "<div xmlns=\"http://www.w3.org/1999/xhtml\"><table class=\"grid dict\"><tr><th scope=\"row\"><b>Id: </b></th><td style=\"padding-left: 25px; padding-right: 25px;\">library-EXM161-FHIR3-8.0.0</td></tr><tr><th scope=\"row\"><b>Type: </b></th><td style=\"padding-right: 25px;\"> logic-library </td></tr><tr><th scope=\"row\"><b>Version: </b></th><td style=\"padding-left: 25px; padding-right: 25px;\">8.0.0</td></tr><tr><th scope=\"row\"><b>Status: </b></th><td style=\"padding-left: 25px; padding-right: 25px;\">active</td></tr><tr style=\"vertical-align: top;\"><th rowspan=\"2\" scope=\"row\"><b>Related: </b></th><td style=\"padding-left: 25px; padding-right: 25px;\"><p style=\"margin-bottom: 5px;\"><b>type: </b><span>depends-on</span></p><p style=\"margin-bottom: 5px;\"><b>Resource: </b><br/><span>org.hl7.fhir.dstu3.model.Reference@4c9b984b</span></p></td></tr><tr style=\"vertical-align: top;\"><td style=\"padding-left: 25px; padding-right: 25px;\"><p style=\"margin-bottom: 5px;\"><b>type: </b><span>depends-on</span></p><p style=\"margin-bottom: 5px;\"><b>Resource: </b><br/><span>org.hl7.fhir.dstu3.model.Reference@148b8313</span></p></td></tr><tr style=\"vertical-align: top;\"><th rowspan=\"8\" scope=\"row\"><b>Data Requirements: </b></th><td style=\"padding-left: 25px; padding-right: 25px;\"><div xmlns=\"http://www.w3.org/1999/xhtml\"><p style=\"margin-bottom: 5px;\"><b>type: </b><span>Encounter</span></p><p style=\"margin-bottom: 5px;\"><b>code filter:</b><br/><span style=\"padding-left: 25px;\"><b>path: </b><span>type</span></span><br/><span style=\"padding-left: 25px;\"><b>valueset: </b><span>http://cts.nlm.nih.gov/fhir/ValueSet/2.16.840.1.113883.3.526.3.1492</span></span></p></div></td></tr><tr style=\"vertical-align: top;\"><td style=\"padding-left: 25px; padding-right: 25px;\"><div xmlns=\"http://www.w3.org/1999/xhtml\"><p style=\"margin-bottom: 5px;\"><b>type: </b><span>Encounter</span></p><p style=\"margin-bottom: 5px;\"><b>code filter:</b><br/><span style=\"padding-left: 25px;\"><b>path: </b><span>type</span></span><br/><span style=\"padding-left: 25px;\"><b>valueset: </b><span>http://cts.nlm.nih.gov/fhir/ValueSet/2.16.840.1.113883.3.464.1003.101.12.1010</span></span></p></div></td></tr><tr style=\"vertical-align: top;\"><td style=\"padding-left: 25px; padding-right: 25px;\"><div xmlns=\"http://www.w3.org/1999/xhtml\"><p style=\"margin-bottom: 5px;\"><b>type: </b><span>Encounter</span></p><p style=\"margin-bottom: 5px;\"><b>code filter:</b><br/><span style=\"padding-left: 25px;\"><b>path: </b><span>type</span></span><br/><span style=\"padding-left: 25px;\"><b>valueset: </b><span>http://cts.nlm.nih.gov/fhir/ValueSet/2.16.840.1.113883.3.464.1003.101.12.1001</span></span></p></div></td></tr><tr style=\"vertical-align: top;\"><td style=\"padding-left: 25px; padding-right: 25px;\"><div xmlns=\"http://www.w3.org/1999/xhtml\"><p style=\"margin-bottom: 5px;\"><b>type: </b><span>Encounter</span></p><p style=\"margin-bottom: 5px;\"><b>code filter:</b><br/><span style=\"padding-left: 25px;\"><b>path: </b><span>type</span></span><br/><span style=\"padding-left: 25px;\"><b>valueset: </b><span>http://cts.nlm.nih.gov/fhir/ValueSet/2.16.840.1.113883.3.464.1003.101.12.1008</span></span></p></div></td></tr><tr style=\"vertical-align: top;\"><td style=\"padding-left: 25px; padding-right: 25px;\"><div xmlns=\"http://www.w3.org/1999/xhtml\"><p style=\"margin-bottom: 5px;\"><b>type: </b><span>Encounter</span></p><p style=\"margin-bottom: 5px;\"><b>code filter:</b><br/><span style=\"padding-left: 25px;\"><b>path: </b><span>type</span></span><br/><span style=\"padding-left: 25px;\"><b>valueset: </b><span>http://cts.nlm.nih.gov/fhir/ValueSet/2.16.840.1.113883.3.526.3.1496</span></span></p></div></td></tr><tr style=\"vertical-align: top;\"><td style=\"padding-left: 25px; padding-right: 25px;\"><div xmlns=\"http://www.w3.org/1999/xhtml\"><p style=\"margin-bottom: 5px;\"><b>type: </b><span>Encounter</span></p><p style=\"margin-bottom: 5px;\"><b>code filter:</b><br/><span style=\"padding-left: 25px;\"><b>path: </b><span>type</span></span><br/><span style=\"padding-left: 25px;\"><b>valueset: </b><span>http://cts.nlm.nih.gov/fhir/ValueSet/2.16.840.1.113883.3.526.3.1141</span></span></p></div></td></tr><tr style=\"vertical-align: top;\"><td style=\"padding-left: 25px; padding-right: 25px;\"><div xmlns=\"http://www.w3.org/1999/xhtml\"><p style=\"margin-bottom: 5px;\"><b>type: </b><span>Encounter</span></p><p style=\"margin-bottom: 5px;\"><b>code filter:</b><br/><span style=\"padding-left: 25px;\"><b>path: </b><span>type</span></span><br/><span style=\"padding-left: 25px;\"><b>valueset: </b><span>http://cts.nlm.nih.gov/fhir/ValueSet/2.16.840.1.113883.3.464.1003.101.12.1031</span></span></p></div></td></tr><tr style=\"vertical-align: top;\"><td style=\"padding-left: 25px; padding-right: 25px;\"><div xmlns=\"http://www.w3.org/1999/xhtml\"><p style=\"margin-bottom: 5px;\"><b>type: </b><span>Procedure</span></p><p style=\"margin-bottom: 5px;\"><b>code filter:</b><br/><span style=\"padding-left: 25px;\"><b>path: </b><span>code</span></span></p></div></td></tr><tr style=\"vertical-align: top;\"><th scope=\"row\"><b>Content: </b></th><td style=\"padding-left: 25px; padding-right: 25px;\"><b>type: </b><span>text/cql</span></td></tr><tr><td colspan=\"2\" style=\"padding-left: 25px; padding-right: 25px;\"><pre><code class=\"language-cql\">library EXM161_FHIR3 version '8.0.0'\n/*CMS61 Adult MDD*/\n//All measures need a library//\n//Each measure needs to have a library specified//\n\nusing FHIR version '3.0.0'\n//include library MATGlobalCommonFunctions_FHIR version '4.0.000' called Global//\n//includes do not use the term 'library'//\ninclude MATGlobalCommonFunctions_FHIR3 version '4.0.000' called Global\ninclude FHIRHelpers version '3.0.0' called FHIRHelpers\n\ncodesystem SNOMEDCT: 'https://snomed.info/sct'\n\nvalueset \"Emergency Department Visit\": 'http://cts.nlm.nih.gov/fhir/ValueSet/2.16.840.1.113883.3.464.1003.101.12.1010'\nvalueset \"Ethnicity\": 'http://cts.nlm.nih.gov/fhir/ValueSet/2.16.840.1.114222.4.11.837'\nvalueset \"Major Depressive Disorder-Active\": 'http://cts.nlm.nih.gov/fhir/ValueSet/2.16.840.1.113883.3.526.3.1491'\nvalueset \"Office Visit\": 'http://cts.nlm.nih.gov/fhir/ValueSet/2.16.840.1.113883.3.464.1003.101.12.1001'\nvalueset \"ONC Administrative Sex\": 'http://cts.nlm.nih.gov/fhir/ValueSet/2.16.840.1.113762.1.4.1'\nvalueset \"Outpatient Consultation\": 'http://cts.nlm.nih.gov/fhir/ValueSet/2.16.840.1.113883.3.464.1003.101.12.1008'\nvalueset \"Payer\": 'http://cts.nlm.nih.gov/fhir/ValueSet/2.16.840.1.114222.4.11.3591'\nvalueset \"Psych Visit - Diagnostic Evaluation\": 'http://cts.nlm.nih.gov/fhir/ValueSet/2.16.840.1.113883.3.526.3.1492'\nvalueset \"Psych Visit - Psychotherapy\": 'http://cts.nlm.nih.gov/fhir/ValueSet/2.16.840.1.113883.3.526.3.1496'\nvalueset \"Psychoanalysis\": 'http://cts.nlm.nih.gov/fhir/ValueSet/2.16.840.1.113883.3.526.3.1141'\nvalueset \"Race\": 'http://cts.nlm.nih.gov/fhir/ValueSet/2.16.840.1.114222.4.11.836'\nvalueset \"Telehealth Services\": 'http://cts.nlm.nih.gov/fhir/ValueSet/2.16.840.1.113883.3.464.1003.101.12.1031'\n\ncode \"Suicide risk assessment (procedure)\": '225337009' from \"SNOMEDCT\" display 'Suicide risk assessment (procedure)'\n\nparameter \"Measurement Period\" Interval&lt;DateTime&gt; default Interval[@2019-01-01T00:00:00.0, @2020-01-01T00:00:00.0)\n\ncontext Patient\n\ndefine \"Denominator\":\n\"Initial Population\"\n\ndefine \"Initial Population\":\n\"New or Recurrent Major Depressive Disorder Encounter\" NewOrRecurrentMDDEncounter\n\twhere Global.\"CalendarAgeInYearsAt\"(FHIRHelpers.ToDate(Patient.birthDate), start of \"Measurement Period\")&gt;= 17\n\ndefine \"Major Depressive Disorder Encounter\":\n( [\"Encounter\": \"Psych Visit - Diagnostic Evaluation\"]\n\tunion [\"Encounter\": \"Emergency Department Visit\"]\n\tunion [\"Encounter\": \"Office Visit\"]\n\tunion [\"Encounter\": \"Outpatient Consultation\"]\n\tunion [\"Encounter\": \"Psych Visit - Psychotherapy\"]\n\tunion [\"Encounter\": \"Psychoanalysis\"]\n\tunion [\"Encounter\": \"Telehealth Services\"] ) ValidEncounter\n\twhere ValidEncounter.status = 'finished'\n    and Global.EncounterDiagnosis(ValidEncounter).code in \"Major Depressive Disorder-Active\"\n\ndefine \"New or Recurrent Major Depressive Disorder Encounter\":\n\"Major Depressive Disorder Encounter\" NewOrRecurrentMDDEncounter\n\twithout \"Major Depressive Disorder Encounter\" PriorMDDEpisodeEncounter\n\t\tsuch that PriorMDDEpisodeEncounter !~ NewOrRecurrentMDDEncounter\n\t\t\tand PriorMDDEpisodeEncounter.period ends 104 days or less before day of start of NewOrRecurrentMDDEncounter.period\n\twhere NewOrRecurrentMDDEncounter.period during \"Measurement Period\"\n\ndefine \"Numerator\":\n  \"New or Recurrent Major Depressive Disorder Encounter\" NewOrRecurrentMDDEncounter\n  \twith [\"Procedure\": \"Suicide risk assessment (procedure)\"] SuicideRiskAssessment\n\t  \tsuch that SuicideRiskAssessment.performed during NewOrRecurrentMDDEncounter.period\n        and SuicideRiskAssessment.status = 'completed'\n</code></pre>\r\n                    \r\n                    \r\n                </td>\r\n            </tr>\r\n        \r\n    </table>\r\n</div>"
        },
        "version": "8.0.0",
        "name": "EXM161_FHIR3",
        "status": "active",
        "experimental": true,
        "type": {
          "coding": [
            {
              "system": "http://hl7.org/fhir/codesystem-library-type.html",
              "code": "logic-library"
            }
          ]
        },
        "relatedArtifact": [
          {
            "type": "depends-on",
            "resource": {
              "reference": "Library/library-MATGlobalCommonFunctions-FHIR3-4.0.000"
            }
          },
          {
            "type": "depends-on",
            "resource": {
              "reference": "Library/library-FHIRHelpers-3.0.0"
            }
          }
        ],
        "dataRequirement": [
          {
            "type": "Encounter",
            "codeFilter": [
              {
                "path": "type",
                "valueSetString": "http://cts.nlm.nih.gov/fhir/ValueSet/2.16.840.1.113883.3.526.3.1492"
              }
            ]
          },
          {
            "type": "Encounter",
            "codeFilter": [
              {
                "path": "type",
                "valueSetString": "http://cts.nlm.nih.gov/fhir/ValueSet/2.16.840.1.113883.3.464.1003.101.12.1010"
              }
            ]
          },
          {
            "type": "Encounter",
            "codeFilter": [
              {
                "path": "type",
                "valueSetString": "http://cts.nlm.nih.gov/fhir/ValueSet/2.16.840.1.113883.3.464.1003.101.12.1001"
              }
            ]
          },
          {
            "type": "Encounter",
            "codeFilter": [
              {
                "path": "type",
                "valueSetString": "http://cts.nlm.nih.gov/fhir/ValueSet/2.16.840.1.113883.3.464.1003.101.12.1008"
              }
            ]
          },
          {
            "type": "Encounter",
            "codeFilter": [
              {
                "path": "type",
                "valueSetString": "http://cts.nlm.nih.gov/fhir/ValueSet/2.16.840.1.113883.3.526.3.1496"
              }
            ]
          },
          {
            "type": "Encounter",
            "codeFilter": [
              {
                "path": "type",
                "valueSetString": "http://cts.nlm.nih.gov/fhir/ValueSet/2.16.840.1.113883.3.526.3.1141"
              }
            ]
          },
          {
            "type": "Encounter",
            "codeFilter": [
              {
                "path": "type",
                "valueSetString": "http://cts.nlm.nih.gov/fhir/ValueSet/2.16.840.1.113883.3.464.1003.101.12.1031"
              }
            ]
          },
          {
            "type": "Procedure",
            "codeFilter": [
              {
                "path": "code"
              }
            ]
          }
        ],
        "content": [
          {
            "contentType": "application/elm+xml",
            "data": ""
          },
          {
            "contentType": "text/cql",
            "data": ""
          }
        ]
      },
      "request": {
        "method": "PUT",
        "url": "Library/library-EXM161-FHIR3-8.0.0"
      }
    },
    {
      "resource": {
        "resourceType": "ValueSet",
        "id": "2.16.840.1.113883.3.666.5.307",
        "url": "http://cts.nlm.nih.gov/fhir/ValueSet/2.16.840.1.113883.3.666.5.307",
        "identifier": [
          {
            "system": "urn:ietf:rfc:3986",
            "value": "2.16.840.1.113883.3.666.5.307"
          }
        ],
        "version": "20170504",
        "name": "EncounterInpatient",
        "title": "Encounter Inpatient",
        "status": "active",
        "publisher": "NLM",
        "compose": {
          "include": [
            {
              "system": "http://snomed.info/sct",
              "version": "2018-03",
              "concept": [
                {
                  "code": "183452005",
                  "display": "Emergency hospital admission (procedure)"
                },
                {
                  "code": "32485007",
                  "display": "Hospital admission (procedure)"
                },
                {
                  "code": "8715000",
                  "display": "Hospital admission, elective (procedure)"
                }
              ]
            }
          ]
        }
      },
      "request": {
        "method": "PUT",
        "url": "ValueSet/2.16.840.1.113883.3.666.5.307"
      }
    },
    {
      "resource": {
        "resourceType": "ValueSet",
        "id": "2.16.840.1.113883.3.117.1.7.1.292",
        "url": "http://cts.nlm.nih.gov/fhir/ValueSet/2.16.840.1.113883.3.117.1.7.1.292",
        "title": "Emergency Department Visit",
        "status": "active",
        "publisher": "The Joint Commission",
        "compose": {
          "include": [
            {
              "system": "http://snomed.info/sct",
              "version": "2019-03",
              "concept": [
                {
                  "code": "4525004",
                  "display": "Emergency department patient visit (procedure)"
                }
              ]
            }
          ]
        }
      },
      "request": {
        "method": "PUT",
        "url": "ValueSet/2.16.840.1.113883.3.117.1.7.1.292"
      }
    },
    {
      "resource": {
        "resourceType": "Patient",
        "id": "numer-EXM161-FHIR3",
        "meta": {
          "profile": [
            "http://hl7.org/fhir/us/core/StructureDefinition/us-core-patient"
          ]
        },
        "extension": [
          {
            "url": "http://hl7.org/fhir/us/core/StructureDefinition/us-core-race",
            "extension": [
              {
                "url": "ombCategory",
                "valueCoding": {
                  "system": "urn:oid:2.16.840.1.113883.6.238",
                  "code": "2106-3",
                  "display": "White"
                }
              }
            ]
          },
          {
            "url": "http://hl7.org/fhir/us/core/StructureDefinition/us-core-ethnicity",
            "extension": [
              {
                "url": "ombCategory",
                "valueCoding": {
                  "system": "urn:oid:2.16.840.1.113883.6.238",
                  "code": "2186-5",
                  "display": "Not Hispanic or Latino"
                }
              }
            ]
          }
        ],
        "identifier": [
          {
            "use": "usual",
            "type": {
              "coding": [
                {
                  "system": "http://terminology.hl7.org/CodeSystem/v2-0203",
                  "code": "MR",
                  "display": "Medical Record Number"
                }
              ]
            },
            "system": "http://hospital.smarthealthit.org",
            "value": "9999999911"
          }
        ],
        "name": [
          {
            "family": "Jones",
            "given": [
              "Louise"
            ]
          }
        ],
        "gender": "female",
        "birthDate": "1971-11-21"
      },
      "request": {
        "method": "PUT",
        "url": "Patient/numer-EXM161-FHIR3"
      }
    }
  ]
}