{
  "resourceType": "Bundle",
  "id": "cms108-r4-denom",
  "type": "transaction",
  "entry": [
    {
      "resource": {
        "resourceType": "Patient",
        "id": "1e0b4c13-7445-4316-b5f5-19e24ada9861",
        "meta": {
          "profile": [
            "http://hl7.org/fhir/us/core/StructureDefinition/us-core-patient"
          ]
        },
        "extension": [
          {
            "url": "http://hl7.org/fhir/us/core/StructureDefinition/us-core-race",
            "extension": [
              {
                "url": "ombCategory",
                "valueCoding": {
                  "system": "urn:oid:2.16.840.1.113883.6.238",
                  "code": "2106-3",
                  "display": "White"
                }
              }
            ]
          },
          {
            "url": "http://hl7.org/fhir/us/core/StructureDefinition/us-core-ethnicity",
            "extension": [
              {
                "url": "ombCategory",
                "valueCoding": {
                  "system": "urn:oid:2.16.840.1.113883.6.238",
                  "code": "2135-2",
                  "display": "Hispanic or Latino"
                }
              }
            ]
          }
        ],
        "identifier": [
          {
            "use": "usual",
            "type": {
              "coding": [
                {
                  "system": "http://terminology.hl7.org/CodeSystem/v2-0203",
                  "code": "MR",
                  "display": "Medical Record Number"
                }
              ]
            },
            "system": "http://hospital.smarthealthit.org",
            "value": "999999998"
          }
        ],
        "name": [
          {
            "family": "Doe",
            "given": [
              "Bill"
            ]
          }
        ],
        "gender": "male",
        "birthDate": "1959-02-09"
      },
      "request": {
        "method": "PUT",
        "url": "http://localhost:8080/cqf-ruler/baseR4/Patient/1e0b4c13-7445-4316-b5f5-19e24ada9861"
      }
    },
    {
      "resource": {
        "resourceType": "Condition",
        "id": "a3f4f8de-7e8f-41c5-a36d-b568d6e9d61f",
        "meta": {
          "profile": [
            "http://hl7.org/fhir/us/core/StructureDefinition/us-core-condition"
          ]
        },
        "verificationStatus": {
          "coding": [
            {
              "system": "http://terminology.hl7.org/CodeSystem/condition-ver-status",
              "code": "confirmed",
              "display": "Confirmed"
            }
          ]
        },
        "category": [
          {
            "coding": [
              {
                "system": "http://terminology.hl7.org/CodeSystem/condition-category",
                "code": "encounter-diagnosis",
                "display": "Encounter Diagnosis"
              }
            ]
          }
        ],
        "code": {
          "coding": [
            {
              "system": "http://snomed.info/sct",
              "code": "10327003",
              "display": "Cocaine-induced mood disorder (disorder)"
            }
          ]
        },
        "subject": {
          "reference": "Patient/1e0b4c13-7445-4316-b5f5-19e24ada9861"
        }
      },
      "request": {
        "method": "PUT",
        "url": "http://localhost:8080/cqf-ruler/baseR4/Condition/a3f4f8de-7e8f-41c5-a36d-b568d6e9d61f"
      }
    },
    {
      "resource": {
        "resourceType": "Encounter",
        "id": "67a7d271-0a2f-4e59-a233-1a4d8d6ebf0f",
        "meta": {
          "profile": [
            "http://hl7.org/fhir/us/core/StructureDefinition/us-core-encounter"
          ]
        },
        "status": "finished",
        "class": {
          "system": "http://terminology.hl7.org/CodeSystem/v3-ActCode",
          "code": "IMP",
          "display": "inpatient encounter"
        },
        "type": [
          {
            "coding": [
              {
                "system": "http://snomed.info/sct",
                "code": "32485007",
                "display": "Hospital admission (procedure)"
              }
            ]
          }
        ],
        "subject": {
          "reference": "Patient/1e0b4c13-7445-4316-b5f5-19e24ada9861"
        },
        "period": {
          "start": "2019-01-16T08:30:00-07:00",
          "end": "2019-01-20T08:30:00-07:00"
        },
        "diagnosis": [
          {
            "condition": {
              "reference": "Condition/a3f4f8de-7e8f-41c5-a36d-b568d6e9d61f"
            }
          }
        ],
        "hospitalization": {
          "dischargeDisposition": {
            "coding": [
              {
                "system": "http://snomed.info/sct",
                "code": "306701001",
                "display": "Discharge to community hospital (procedure)"
              }
            ]
          }
        }
      },
      "request": {
        "method": "PUT",
        "url": "http://localhost:8080/cqf-ruler/baseR4/Encounter/67a7d271-0a2f-4e59-a233-1a4d8d6ebf0f"
      }
    },
    {
      "resource": {
        "resourceType": "Procedure",
        "id": "5c98f643-badd-4e93-b6d0-f8f951789737",
        "meta": {
          "profile": [
            "http://hl7.org/fhir/us/core/StructureDefinition/us-core-procedure"
          ]
        },
        "status": "completed",
        "code": {
          "coding": [
            {
              "system": "http://snomed.info/sct",
              "code": "112943005",
              "display": "Epidural injection of anesthetic substance"
            }
          ]
        },
        "subject": {
          "reference": "Patient/1e0b4c13-7445-4316-b5f5-19e24ada9861"
        },
        "performedPeriod": {
          "start": "2019-01-17T08:30:00-07:00",
          "end": "2019-01-17T10:30:00-07:00"
        }
      },
      "request": {
        "method": "PUT",
        "url": "http://localhost:8080/cqf-ruler/baseR4/Procedure/5c98f643-badd-4e93-b6d0-f8f951789737"
      }
    },
    {
      "resource": {
        "resourceType": "MedicationAdministration",
        "id": "f65c07df-86b3-4784-b69b-e5b82c6ca343",
        "status": "completed",
        "medicationCodeableConcept": {
          "coding": [
            {
              "system": "http://www.nlm.nih.gov/research/umls/rxnorm",
              "code": "854228",
              "display": "0.3 ML Enoxaparin sodium 100 MG/ML Prefilled Syringe"
            }
          ]
        },
        "subject": {
          "reference": "Patient/1e0b4c13-7445-4316-b5f5-19e24ada9861"
        },
        "effectivePeriod": {
          "start": "2019-01-19T12:30:00-07:00",
          "end": "2019-01-19T13:00:00-07:00"
        }
      },
      "request": {
        "method": "PUT",
        "url": "http://localhost:8080/cqf-ruler/baseR4/MedicationAdministration/f65c07df-86b3-4784-b69b-e5b82c6ca343"
      }
    }
  ]
}