{
  "resourceType": "Bundle",
  "id": "tests-numer-EXM125-FHIR3-bundle",
  "type": "transaction",
  "entry": [
    {
      "resource": {
        "resourceType": "DiagnosticReport",
        "id": "numer-EXM125-FHIR3-2",
        "status": "final",
        "code": {
          "coding": [
            {
              "system": "http://loinc.org",
              "code": "24604-1",
              "display": "MG Breast Diagnostic Limited Views"
            }
          ]
        },
        "subject": {
          "reference": "Patient/numer-EXM125-FHIR3"
        },
        "effectivePeriod": {
          "start": "2018-05-30T00:00:00-00:00",
          "end": "2018-11-30T00:00:00-00:00"
        }
      },
      "request": {
        "method": "PUT",
        "url": "DiagnosticReport/numer-EXM125-FHIR3-2"
      }
    },
    {
      "resource": {
        "resourceType": "Encounter",
        "id": "numer-EXM125-FHIR3-3",
        "meta": {
          "profile": [
            "http://hl7.org/fhir/us/core/StructureDefinition/us-core-encounter"
          ]
        },
        "status": "finished",
        "class": {
          "system": "http://terminology.hl7.org/CodeSystem/v3-ActCode",
          "code": "AMB",
          "display": "ambulatory"
        },
        "type": [
          {
            "coding": [
              {
                "system": "http://www.ama-assn.org/go/cpt",
                "code": "99201",
                "display": "Office or other outpatient visit for the evaluation and management of a new patient, which requires these 3 key components: A problem focused history; A problem focused examination; Straightforward medical decision making. Counseling and/or coordination of care with other physicians, other qualified health care professionals, or agencies are provided consistent with the nature of the problem(s) and the patient's and/or family's needs. Usually, the presenting problem(s) are self limited or minor. Typically, 10 minutes are spent face-to-face with the patient and/or family."
              }
            ]
          }
        ],
        "subject": {
          "reference": "Patient/numer-EXM125-FHIR3"
        },
        "period": {
          "start": "2019-05-30T00:00:00-00:00",
          "end": "2019-05-31T00:00:00-00:00"
        }
      },
      "request": {
        "method": "PUT",
        "url": "Encounter/numer-EXM125-FHIR3-3"
      }
    },
    {
      "resource": {
        "resourceType": "MeasureReport",
        "id": "measurereport-numer-EXM125-FHIR3",
        "contained": [
          {
            "resourceType": "Bundle",
            "id": "6c510008-6781-46b2-bfa4-b967a7614145",
            "type": "collection",
            "entry": [
              {
                "fullUrl": "7985143a-ec1f-42a0-b7bd-7c74005a080d",
                "resource": {
                  "resourceType": "List",
                  "id": "7985143a-ec1f-42a0-b7bd-7c74005a080d",
                  "title": "numerator",
                  "entry": [
                    {
                      "item": {
                        "reference": "#DiagnosticReport/numer-EXM125-FHIR3-2/_history/1"
                      }
                    }
                  ]
                }
              },
              {
                "fullUrl": "f69d2291-d381-48b3-87ed-8d3a89b86e5e",
                "resource": {
                  "resourceType": "List",
                  "id": "f69d2291-d381-48b3-87ed-8d3a89b86e5e",
                  "title": "initial-population",
                  "entry": [
                    {
                      "item": {
                        "reference": "#Encounter/numer-EXM125-FHIR3-3/_history/2"
                      }
                    },
                    {
                      "item": {
                        "reference": "#Patient/numer-EXM125-FHIR3/_history/1"
                      }
                    }
                  ]
                }
              },
              {
                "fullUrl": "DiagnosticReport/numer-EXM125-FHIR3-2/_history/1",
                "resource": {
                  "resourceType": "DiagnosticReport",
                  "id": "numer-EXM125-FHIR3-2",
                  "meta": {
                    "versionId": "1",
                    "lastUpdated": "2019-12-13T10:16:02.681-07:00"
                  },
                  "text": {
                    "status": "generated",
                    "div": "<div xmlns=\"http://www.w3.org/1999/xhtml\"><div class=\"hapiHeaderText\"> MG Breast Diagnostic Limited Views </div><table class=\"hapiPropertyTable\"><tbody><tr><td>Status</td><td>FINAL</td></tr></tbody></table></div>"
                  },
                  "status": "final",
                  "code": {
                    "coding": [
                      {
                        "system": "http://loinc.org",
                        "code": "24604-1",
                        "display": "MG Breast Diagnostic Limited Views"
                      }
                    ]
                  },
                  "subject": {
                    "reference": "Patient/numer-EXM125-FHIR3"
                  },
                  "effectivePeriod": {
                    "start": "2018-05-30T00:00:00-00:00",
                    "end": "2018-11-30T00:00:00-00:00"
                  }
                }
              },
              {
                "fullUrl": "Encounter/numer-EXM125-FHIR3-3/_history/2",
                "resource": {
                  "resourceType": "Encounter",
                  "id": "numer-EXM125-FHIR3-3",
                  "meta": {
                    "versionId": "2",
                    "lastUpdated": "2019-12-13T10:45:14.947-07:00",
                    "profile": [
                      "http://hl7.org/fhir/us/core/StructureDefinition/us-core-encounter"
                    ]
                  },
                  "status": "finished",
                  "class": {
                    "system": "http://terminology.hl7.org/CodeSystem/v3-ActCode",
                    "code": "AMB",
                    "display": "ambulatory"
                  },
                  "type": [
                    {
                      "coding": [
                        {
                          "system": "http://www.ama-assn.org/go/cpt",
                          "code": "99201",
                          "display": "Office or other outpatient visit for the evaluation and management of a new patient, which requires these 3 key components: A problem focused history; A problem focused examination; Straightforward medical decision making. Counseling and/or coordination of care with other physicians, other qualified health care professionals, or agencies are provided consistent with the nature of the problem(s) and the patient's and/or family's needs. Usually, the presenting problem(s) are self limited or minor. Typically, 10 minutes are spent face-to-face with the patient and/or family."
                        }
                      ]
                    }
                  ],
                  "subject": {
                    "reference": "Patient/numer-EXM125-FHIR3"
                  },
                  "period": {
                    "start": "2019-05-30T00:00:00-00:00",
                    "end": "2019-05-31T00:00:00-00:00"
                  }
                }
              },
              {
                "fullUrl": "Patient/numer-EXM125-FHIR3/_history/1",
                "resource": {
                  "resourceType": "Patient",
                  "id": "numer-EXM125-FHIR3",
                  "meta": {
                    "versionId": "1",
                    "lastUpdated": "2019-12-13T10:16:02.681-07:00",
                    "profile": [
                      "http://hl7.org/fhir/us/core/StructureDefinition/us-core-patient"
                    ]
                  },
                  "text": {
                    "status": "generated",
                    "div": "<div xmlns=\"http://www.w3.org/1999/xhtml\"><div class=\"hapiHeaderText\">Moe <b>SNUFFY </b></div><table class=\"hapiPropertyTable\"><tbody><tr><td>Identifier</td><td>999999992</td></tr><tr><td>Date of birth</td><td><span>01 January 1965</span></td></tr></tbody></table></div>"
                  },
                  "extension": [
                    {
                      "url": "http://hl7.org/fhir/us/core/StructureDefinition/us-core-race",
                      "extension": [
                        {
                          "url": "ombCategory",
                          "valueCoding": {
                            "system": "urn:oid:2.16.840.1.113883.6.238",
                            "code": "2028-9",
                            "display": "Asian"
                          }
                        }
                      ]
                    },
                    {
                      "url": "http://hl7.org/fhir/us/core/StructureDefinition/us-core-ethnicity",
                      "extension": [
                        {
                          "url": "ombCategory",
                          "valueCoding": {
                            "system": "urn:oid:2.16.840.1.113883.6.238",
                            "code": "2135-2",
                            "display": "Hispanic or Latino"
                          }
                        }
                      ]
                    }
                  ],
                  "identifier": [
                    {
                      "use": "usual",
                      "type": {
                        "coding": [
                          {
                            "system": "http://terminology.hl7.org/CodeSystem/v2-0203",
                            "code": "MR",
                            "display": "Medical Record Number"
                          }
                        ]
                      },
                      "system": "http://hospital.smarthealthit.org",
                      "value": "999999992"
                    }
                  ],
                  "name": [
                    {
                      "family": "Snuffy",
                      "given": [
                        "Moe"
                      ]
                    }
                  ],
                  "gender": "female",
                  "birthDate": "1965-01-01"
                }
              }
            ]
          }
        ],
        "status": "complete",
        "type": "individual",
        "measure": {
          "reference": "Measure/measure-EXM125-FHIR3-7.2.000"
        },
        "patient": {
          "reference": "Patient/numer-EXM125-FHIR3"
        },
        "period": {
          "start": "2019-01-01T00:00:00-07:00",
          "end": "2019-12-31T00:00:00-07:00"
        },
        "group": [
          {
            "identifier": {
              "value": "group-1"
            },
            "population": [
              {
                "identifier": {
                  "value": "initial-population-identifier"
                },
                "code": {
                  "coding": [
                    {
                      "system": "http://terminology.hl7.org/CodeSystem/measure-population",
                      "code": "initial-population",
                      "display": "Initial Population"
                    }
                  ]
                },
                "count": 1
              },
              {
                "identifier": {
                  "value": "numerator-identifier"
                },
                "code": {
                  "coding": [
                    {
                      "system": "http://terminology.hl7.org/CodeSystem/measure-population",
                      "code": "numerator",
                      "display": "Numerator"
                    }
                  ]
                },
                "count": 1
              },
              {
                "identifier": {
                  "value": "denominator-identifier"
                },
                "code": {
                  "coding": [
                    {
                      "system": "http://terminology.hl7.org/CodeSystem/measure-population",
                      "code": "denominator",
                      "display": "Denominator"
                    }
                  ]
                },
                "count": 1
              },
              {
                "identifier": {
                  "value": "denominator-exclusions-identifier"
                },
                "code": {
                  "coding": [
                    {
                      "system": "http://terminology.hl7.org/CodeSystem/measure-population",
                      "code": "denominator-exclusion",
                      "display": "Denominator Exclusion"
                    }
                  ]
                },
                "count": 0
              }
            ],
            "measureScore": 1.0
          }
        ],
        "evaluatedResources": {
          "reference": "#6c510008-6781-46b2-bfa4-b967a7614145"
        }
      },
      "request": {
        "method": "PUT",
        "url": "MeasureReport/measurereport-numer-EXM125-FHIR3"
      }
    },
    {
      "resource": {
        "resourceType": "Patient",
        "id": "numer-EXM125-FHIR3",
        "meta": {
          "profile": [
            "http://hl7.org/fhir/us/core/StructureDefinition/us-core-patient"
          ]
        },
        "extension": [
          {
            "url": "http://hl7.org/fhir/us/core/StructureDefinition/us-core-race",
            "extension": [
              {
                "url": "ombCategory",
                "valueCoding": {
                  "system": "urn:oid:2.16.840.1.113883.6.238",
                  "code": "2028-9",
                  "display": "Asian"
                }
              }
            ]
          },
          {
            "url": "http://hl7.org/fhir/us/core/StructureDefinition/us-core-ethnicity",
            "extension": [
              {
                "url": "ombCategory",
                "valueCoding": {
                  "system": "urn:oid:2.16.840.1.113883.6.238",
                  "code": "2135-2",
                  "display": "Hispanic or Latino"
                }
              }
            ]
          }
        ],
        "identifier": [
          {
            "use": "usual",
            "type": {
              "coding": [
                {
                  "system": "http://terminology.hl7.org/CodeSystem/v2-0203",
                  "code": "MR",
                  "display": "Medical Record Number"
                }
              ]
            },
            "system": "http://hospital.smarthealthit.org",
            "value": "999999992"
          }
        ],
        "name": [
          {
            "family": "Snuffy",
            "given": [
              "Moe"
            ]
          }
        ],
        "gender": "female",
        "birthDate": "1965-01-01"
      },
      "request": {
        "method": "PUT",
        "url": "Patient/numer-EXM125-FHIR3"
      }
    }
  ]
}