{
  "resourceType": "MeasureReport",
  "contained": [
    {
      "resourceType": "Bundle",
      "id": "2e73c334-595b-44b7-a6a3-ef556c9e1fec",
      "type": "collection",
      "entry": [
        {
          "fullUrl": "7ba5e7a2-59f8-40f9-b742-64ecb94eef53",
          "resource": {
            "resourceType": "List",
            "id": "7ba5e7a2-59f8-40f9-b742-64ecb94eef53",
            "title": "initial-population",
            "entry": [
              {
                "item": {
                  "reference": "#Patient/Patient-418/_history/1"
                }
              }
            ]
          }
        },
        {
          "fullUrl": "Patient/Patient-418/_history/1",
          "resource": {
            "resourceType": "Patient",
            "id": "Patient-418",
            "meta": {
              "versionId": "1",
              "lastUpdated": "2019-05-02T10:09:57.236-06:00",
              "profile": [
                "http://hl7.org/fhir/us/hedis/StructureDefinition/hedis-patient"
              ]
            },
            "text": {
              "status": "generated",
              "div": "<div xmlns=\"http://www.w3.org/1999/xhtml\"><div class=\"hapiHeaderText\">Ted Thomas <b>LLOYD </b></div><table class=\"hapiPropertyTable\"><tbody><tr><td>Identifier</td><td>000000418</td></tr><tr><td>Address</td><td><span>128 Fifth Street </span><br/><span>Unit 12 </span><br/><span>Vanderbilt </span><span>MI </span></td></tr><tr><td>Date of birth</td><td><span>30 December 1988</span></td></tr></tbody></table></div>"
            },
            "extension": [
              {
                "url": "http://mihin.org/extension/copyright",
                "valueString": "Copyright 2014-2018 Michigan Health Information Network Shared Services. Licensed under the Apache License, Version 2.0 (the 'License'); you may not use this file except in compliance with the License. You may obtain a copy of the License at  http://www.apache.org/licenses/LICENSE-2.0.  Unless required by applicable law or agreed to in writing, software distributed under the License is distributed on an 'AS IS' BASIS, WITHOUT WARRANTIES OR CONDITIONS OF ANY KIND, either express or implied. See the License for the specific language governing permissions and limitations under the License."
              },
              {
                "url": "http://hl7.org/fhir/us/core/StructureDefinition/us-core-race",
                "valueCodeableConcept": {
                  "coding": [
                    {
                      "system": "http://hl7.org/fhir/v3/Race",
                      "code": "2106-3",
                      "display": "White"
                    }
                  ]
                }
              },
              {
                "url": "http://hl7.org/fhir/us/core/StructureDefinition/us-core-ethnicity",
                "valueCodeableConcept": {
                  "coding": [
                    {
                      "system": "http://hl7.org/fhir/v3/Ethnicity",
                      "code": "2186-5",
                      "display": "Not Hispanic or Latino"
                    }
                  ]
                }
              },
              {
                "url": "http://hl7.org/fhir/us/core/StructureDefinition/us-core-religion",
                "valueCodeableConcept": {
                  "coding": [
                    {
                      "system": "http://hl7.org/fhir/v3/ReligiousAffiliation",
                      "code": "1041",
                      "display": "Roman Catholic Church"
                    }
                  ]
                }
              }
            ],
            "identifier": [
              {
                "use": "official",
                "type": {
                  "coding": [
                    {
                      "system": "http://hl7.org/fhir/identifier-type",
                      "code": "SB",
                      "display": "Social Beneficiary Identifier"
                    }
                  ]
                },
                "system": "http://hl7.org/fhir/sid/us-ssn",
                "value": "000000418"
              },
              {
                "use": "official",
                "type": {
                  "coding": [
                    {
                      "system": "http://hl7.org/fhir/identifier-type",
                      "code": "SB",
                      "display": "Social Beneficiary Identifier"
                    }
                  ]
                },
                "system": "http://mihin.org/fhir/cks",
                "value": "0e02e87573374fff85536fa71ccaabf1"
              }
            ],
            "active": true,
            "name": [
              {
                "family": "Lloyd",
                "given": [
                  "Ted",
                  "Thomas"
                ]
              }
            ],
            "telecom": [
              {
                "system": "phone",
                "value": "989-555-9986",
                "use": "home"
              },
              {
                "system": "phone",
                "value": "989-555-6587",
                "use": "mobile"
              }
            ],
            "gender": "male",
            "birthDate": "1988-12-30",
            "address": [
              {
                "use": "home",
                "type": "postal",
                "line": [
                  "128 Fifth Street",
                  "Unit 12"
                ],
                "city": "Vanderbilt",
                "district": "Otsego County",
                "state": "MI",
                "postalCode": "49795"
              }
            ]
          }
        }
      ]
    }
  ],
  "status": "complete",
  "type": "individual",
  "measure": {
    "reference": "Measure/measure-bcs"
  },
  "patient": {
    "reference": "Patient/Patient-418"
  },
  "period": {
    "start": "2018-01-01T00:00:00-07:00",
    "end": "2018-12-31T00:00:00-07:00"
  },
  "group": [
    {
      "identifier": {
        "value": "BCS-cohort"
      },
      "population": [
        {
          "identifier": {
            "value": "initial-population"
          },
          "code": {
            "coding": [
              {
                "code": "initial-population"
              }
            ]
          },
          "count": 0
        },
        {
          "identifier": {
            "value": "numerator"
          },
          "code": {
            "coding": [
              {
                "code": "numerator"
              }
            ]
          },
          "count": 0
        },
        {
          "identifier": {
            "value": "denominator"
          },
          "code": {
            "coding": [
              {
                "code": "denominator"
              }
            ]
          },
          "count": 0
        }
      ]
    }
  ],
  "evaluatedResources": {
    "reference": "#2e73c334-595b-44b7-a6a3-ef556c9e1fec"
  }
}