{
  "resourceType": "MeasureReport",
  "contained": [
    {
      "resourceType": "Bundle",
      "id": "5f4369f5-f02a-4763-8ecb-1c28b37a7874",
      "type": "collection",
      "entry": [
        {
          "fullUrl": "9dd173cf-1ee3-4806-a677-21c65c1a769d",
          "resource": {
            "resourceType": "List",
            "id": "9dd173cf-1ee3-4806-a677-21c65c1a769d",
            "title": "initial-population",
            "entry": [
              {
                "item": {
                  "reference": "#Encounter/a7720bd3-49ab-4b22-aa05-1ed0f8a16d29-2/_history/3"
                }
              },
              {
                "item": {
                  "reference": "#Patient/a7720bd3-49ab-4b22-aa05-1ed0f8a16d29-1/_history/3"
                }
              }
            ]
          }
        },
        {
          "fullUrl": "Encounter/a7720bd3-49ab-4b22-aa05-1ed0f8a16d29-2/_history/3",
          "resource": {
            "resourceType": "Encounter",
            "id": "a7720bd3-49ab-4b22-aa05-1ed0f8a16d29-2",
            "meta": {
              "versionId": "3",
              "lastUpdated": "2019-10-17T21:11:02.520+00:00",
              "profile": [
                "http://hl7.org/fhir/us/core/StructureDefinition/us-core-encounter"
              ]
            },
            "status": "finished",
            "class": {
              "system": "http://terminology.hl7.org/CodeSystem/v3-ActCode",
              "code": "AMB",
              "display": "ambulatory"
            },
            "type": [
              {
                "coding": [
                  {
                    "system": "http://www.ama-assn.org/go/cpt",
                    "code": "99201",
                    "display": "Office or other outpatient visit for the evaluation and management of a new patient, which requires these 3 key components: A problem focused history; A problem focused examination; Straightforward medical decision making. Counseling and/or coordination of care with other physicians, other qualified health care professionals, or agencies are provided consistent with the nature of the problem(s) and the patient's and/or family's needs. Usually, the presenting problem(s) are self limited or minor. Typically, 10 minutes are spent face-to-face with the patient and/or family."
                  }
                ]
              }
            ],
            "subject": {
              "reference": "Patient/a7720bd3-49ab-4b22-aa05-1ed0f8a16d29-1"
            },
            "period": {
              "start": "2019-05-30T00:00:00-00:00",
              "end": "2019-05-31T00:00:00-00:00"
            }
          }
        },
        {
          "fullUrl": "Patient/a7720bd3-49ab-4b22-aa05-1ed0f8a16d29-1/_history/3",
          "resource": {
            "resourceType": "Patient",
            "id": "a7720bd3-49ab-4b22-aa05-1ed0f8a16d29-1",
            "meta": {
              "versionId": "3",
              "lastUpdated": "2019-10-17T21:11:02.515+00:00",
              "profile": [
                "http://hl7.org/fhir/us/core/StructureDefinition/us-core-patient"
              ]
            },
            "text": {
              "status": "generated",
              "div": "<div xmlns=\"http://www.w3.org/1999/xhtml\"><div class=\"hapiHeaderText\">Don <b>BLITZ </b></div><table class=\"hapiPropertyTable\"><tbody><tr><td>Identifier</td><td>999999992</td></tr><tr><td>Date of birth</td><td><span>01 January 1965</span></td></tr></tbody></table></div>"
            },
            "extension": [
              {
                "url": "http://hl7.org/fhir/us/core/StructureDefinition/us-core-race",
                "extension": [
                  {
                    "url": "ombCategory",
                    "valueCoding": {
                      "system": "urn:oid:2.16.840.1.113883.6.238",
                      "code": "2028-9",
                      "display": "Asian"
                    }
                  }
                ]
              },
              {
                "url": "http://hl7.org/fhir/us/core/StructureDefinition/us-core-ethnicity",
                "extension": [
                  {
                    "url": "ombCategory",
                    "valueCoding": {
                      "system": "urn:oid:2.16.840.1.113883.6.238",
                      "code": "2135-2",
                      "display": "Hispanic or Latino"
                    }
                  }
                ]
              }
            ],
            "identifier": [
              {
                "use": "usual",
                "type": {
                  "coding": [
                    {
                      "system": "http://terminology.hl7.org/CodeSystem/v2-0203",
                      "code": "MR",
                      "display": "Medical Record Number"
                    }
                  ]
                },
                "system": "http://hospital.smarthealthit.org",
                "value": "999999992"
              }
            ],
            "name": [
              {
                "family": "Blitz",
                "given": [
                  "Don"
                ]
              }
            ],
            "gender": "male",
            "birthDate": "1965-01-01"
          }
        },
        {
          "fullUrl": "3630736c-b592-452a-84c5-736b013c1ecf",
          "resource": {
            "resourceType": "List",
            "id": "3630736c-b592-452a-84c5-736b013c1ecf",
            "title": "numerator",
            "entry": [
              {
                "item": {
                  "reference": "#Procedure/a7720bd3-49ab-4b22-aa05-1ed0f8a16d29-4/_history/3"
                }
              }
            ]
          }
        },
        {
          "fullUrl": "Procedure/a7720bd3-49ab-4b22-aa05-1ed0f8a16d29-4/_history/3",
          "resource": {
            "resourceType": "Procedure",
            "id": "a7720bd3-49ab-4b22-aa05-1ed0f8a16d29-4",
            "meta": {
              "versionId": "3",
              "lastUpdated": "2019-10-17T21:11:02.525+00:00",
              "profile": [
                "http://hl7.org/fhir/us/core/StructureDefinition/us-core-procedure"
              ]
            },
            "status": "completed",
            "code": {
              "coding": [
                {
                  "system": "http://www.ama-assn.org/go/cpt",
                  "code": "44393",
                  "display": "Colonoscopy through stoma; with ablation of tumor(s), polyp(s), or other lesion(s) not amenable to removal by hot biopsy forceps, bipolar cautery or snare technique"
                }
              ]
            },
            "subject": {
              "reference": "Patient/a7720bd3-49ab-4b22-aa05-1ed0f8a16d29-1"
            },
            "performedPeriod": {
              "start": "2019-03-01T00:00:00",
              "end": "2019-03-02T00:00:00"
            }
          }
        }
      ]
    }
  ],
  "status": "complete",
  "type": "individual",
  "measure": {
    "reference": "Measure/measure-exm130-FHIR3"
  },
  "patient": {
    "reference": "Patient/a7720bd3-49ab-4b22-aa05-1ed0f8a16d29-1"
  },
  "period": {
    "start": "2019-01-01T00:00:00+00:00",
    "end": "2019-12-31T00:00:00+00:00"
  },
  "group": [
    {
      "identifier": {
        "value": "group-1"
      },
      "population": [
        {
          "identifier": {
            "value": "initial-population-identifier"
          },
          "code": {
            "coding": [
              {
                "system": "http://terminology.hl7.org/CodeSystem/measure-population",
                "code": "initial-population",
                "display": "Initial Population"
              }
            ]
          },
          "count": 1
        },
        {
          "identifier": {
            "value": "numerator-identifier"
          },
          "code": {
            "coding": [
              {
                "system": "http://terminology.hl7.org/CodeSystem/measure-population",
                "code": "numerator",
                "display": "Numerator"
              }
            ]
          },
          "count": 1
        },
        {
          "identifier": {
            "value": "denominator-identifier"
          },
          "code": {
            "coding": [
              {
                "system": "http://terminology.hl7.org/CodeSystem/measure-population",
                "code": "denominator",
                "display": "Denominator"
              }
            ]
          },
          "count": 1
        },
        {
          "identifier": {
            "value": "denominator-exclusions-identifier"
          },
          "code": {
            "coding": [
              {
                "system": "http://terminology.hl7.org/CodeSystem/measure-population",
                "code": "denominator-exclusion",
                "display": "Denominator Exclusion"
              }
            ]
          },
          "count": 0
        }
      ],
      "measureScore": 1.0
    }
  ],
  "evaluatedResources": {
    "reference": "#5f4369f5-f02a-4763-8ecb-1c28b37a7874"
  }
}