{
  "resourceType": "Bundle",
  "id": "tests-denom-EXM130-FHIR3-bundle",
  "type": "transaction",
  "entry": [
    {
      "resource": {
        "resourceType": "Encounter",
        "id": "denom-EXM130-FHIR3-1",
        "meta": {
          "profile": [
            "http://hl7.org/fhir/us/core/StructureDefinition/us-core-encounter"
          ]
        },
        "status": "finished",
        "class": {
          "system": "http://terminology.hl7.org/CodeSystem/v3-ActCode",
          "code": "AMB",
          "display": "ambulatory"
        },
        "type": [
          {
            "coding": [
              {
                "system": "http://www.ama-assn.org/go/cpt",
                "code": "99201",
                "display": "Office or other outpatient visit for the evaluation and management of a new patient, which requires these 3 key components: A problem focused history; A problem focused examination; Straightforward medical decision making. Counseling and/or coordination of care with other physicians, other qualified health care professionals, or agencies are provided consistent with the nature of the problem(s) and the patient's and/or family's needs. Usually, the presenting problem(s) are self limited or minor. Typically, 10 minutes are spent face-to-face with the patient and/or family."
              }
            ]
          }
        ],
        "subject": {
          "reference": "Patient/denom-EXM130-FHIR3"
        },
        "period": {
          "start": "2019-05-30T00:00:00-00:00",
          "end": "2019-05-31T00:00:00-00:00"
        }
      },
      "request": {
        "method": "PUT",
        "url": "Encounter/denom-EXM130-FHIR3-1"
      }
    },
    {
      "resource": {
        "resourceType": "MeasureReport",
        "id": "measurereport-denom-EXM130-FHIR3",
        "contained": [
          {
            "resourceType": "Bundle",
            "id": "8e9b10fb-a518-403e-a06a-6fe93e38dd09",
            "type": "collection",
            "entry": [
              {
                "fullUrl": "Encounter/denom-EXM130-FHIR3-1/_history/1",
                "resource": {
                  "resourceType": "Encounter",
                  "id": "denom-EXM130-FHIR3-1",
                  "meta": {
                    "versionId": "1",
                    "lastUpdated": "2019-12-13T10:16:26.287-07:00",
                    "profile": [
                      "http://hl7.org/fhir/us/core/StructureDefinition/us-core-encounter"
                    ]
                  },
                  "status": "finished",
                  "class": {
                    "system": "http://terminology.hl7.org/CodeSystem/v3-ActCode",
                    "code": "AMB",
                    "display": "ambulatory"
                  },
                  "type": [
                    {
                      "coding": [
                        {
                          "system": "http://www.ama-assn.org/go/cpt",
                          "code": "99201",
                          "display": "Office or other outpatient visit for the evaluation and management of a new patient, which requires these 3 key components: A problem focused history; A problem focused examination; Straightforward medical decision making. Counseling and/or coordination of care with other physicians, other qualified health care professionals, or agencies are provided consistent with the nature of the problem(s) and the patient's and/or family's needs. Usually, the presenting problem(s) are self limited or minor. Typically, 10 minutes are spent face-to-face with the patient and/or family."
                        }
                      ]
                    }
                  ],
                  "subject": {
                    "reference": "Patient/denom-EXM130-FHIR3"
                  },
                  "period": {
                    "start": "2019-05-30T00:00:00-00:00",
                    "end": "2019-05-31T00:00:00-00:00"
                  }
                }
              },
              {
                "fullUrl": "Procedure/denom-EXM130-FHIR3-2/_history/1",
                "resource": {
                  "resourceType": "Procedure",
                  "id": "denom-EXM130-FHIR3-2",
                  "meta": {
                    "versionId": "1",
                    "lastUpdated": "2019-12-13T10:16:26.287-07:00",
                    "profile": [
                      "http://hl7.org/fhir/us/core/StructureDefinition/us-core-procedure"
                    ]
                  },
                  "status": "completed",
                  "code": {
                    "coding": [
                      {
                        "system": "http://www.ama-assn.org/go/cpt",
                        "code": "44393",
                        "display": "Colonoscopy through stoma; with ablation of tumor(s), polyp(s), or other lesion(s) not amenable to removal by hot biopsy forceps, bipolar cautery or snare technique"
                      }
                    ]
                  },
                  "subject": {
                    "reference": "Patient/denom-EXM130-FHIR3"
                  },
                  "performedPeriod": {
                    "start": "2009-12-30T12:00:00",
                    "end": "2009-12-30T13:00:00"
                  }
                }
              },
              {
                "fullUrl": "a38f1856-8417-4b24-b202-7c17f0881b12",
                "resource": {
                  "resourceType": "List",
                  "id": "a38f1856-8417-4b24-b202-7c17f0881b12",
                  "title": "numerator",
                  "entry": [
                    {
                      "item": {
                        "reference": "#Procedure/denom-EXM130-FHIR3-2/_history/1"
                      }
                    }
                  ]
                }
              },
              {
                "fullUrl": "f38c679d-d256-4d48-ae86-78297e570bea",
                "resource": {
                  "resourceType": "List",
                  "id": "f38c679d-d256-4d48-ae86-78297e570bea",
                  "title": "initial-population",
                  "entry": [
                    {
                      "item": {
                        "reference": "#Encounter/denom-EXM130-FHIR3-1/_history/1"
                      }
                    },
                    {
                      "item": {
                        "reference": "#Patient/denom-EXM130-FHIR3/_history/1"
                      }
                    }
                  ]
                }
              },
              {
                "fullUrl": "Patient/denom-EXM130-FHIR3/_history/1",
                "resource": {
                  "resourceType": "Patient",
                  "id": "denom-EXM130-FHIR3",
                  "meta": {
                    "versionId": "1",
                    "lastUpdated": "2019-12-13T10:16:26.287-07:00",
                    "profile": [
                      "http://hl7.org/fhir/us/core/StructureDefinition/us-core-patient"
                    ]
                  },
                  "text": {
                    "status": "generated",
                    "div": "<div xmlns=\"http://www.w3.org/1999/xhtml\"><div class=\"hapiHeaderText\">Ben <b>DERE </b></div><table class=\"hapiPropertyTable\"><tbody><tr><td>Identifier</td><td>999999992</td></tr><tr><td>Date of birth</td><td><span>01 January 1965</span></td></tr></tbody></table></div>"
                  },
                  "extension": [
                    {
                      "url": "http://hl7.org/fhir/us/core/StructureDefinition/us-core-race",
                      "extension": [
                        {
                          "url": "ombCategory",
                          "valueCoding": {
                            "system": "urn:oid:2.16.840.1.113883.6.238",
                            "code": "2028-9",
                            "display": "Asian"
                          }
                        }
                      ]
                    },
                    {
                      "url": "http://hl7.org/fhir/us/core/StructureDefinition/us-core-ethnicity",
                      "extension": [
                        {
                          "url": "ombCategory",
                          "valueCoding": {
                            "system": "urn:oid:2.16.840.1.113883.6.238",
                            "code": "2135-2",
                            "display": "Hispanic or Latino"
                          }
                        }
                      ]
                    }
                  ],
                  "identifier": [
                    {
                      "use": "usual",
                      "type": {
                        "coding": [
                          {
                            "system": "http://terminology.hl7.org/CodeSystem/v2-0203",
                            "code": "MR",
                            "display": "Medical Record Number"
                          }
                        ]
                      },
                      "system": "http://hospital.smarthealthit.org",
                      "value": "999999992"
                    }
                  ],
                  "name": [
                    {
                      "family": "Dere",
                      "given": [
                        "Ben"
                      ]
                    }
                  ],
                  "gender": "male",
                  "birthDate": "1965-01-01"
                }
              }
            ]
          }
        ],
        "status": "complete",
        "type": "individual",
        "measure": {
          "reference": "Measure/measure-EXM130-FHIR3-7.2.000"
        },
        "patient": {
          "reference": "Patient/denom-EXM130-FHIR3"
        },
        "period": {
          "start": "2019-01-01T00:00:00-07:00",
          "end": "2019-12-31T00:00:00-07:00"
        },
        "group": [
          {
            "identifier": {
              "value": "group-1"
            },
            "population": [
              {
                "identifier": {
                  "value": "initial-population-identifier"
                },
                "code": {
                  "coding": [
                    {
                      "system": "http://terminology.hl7.org/CodeSystem/measure-population",
                      "code": "initial-population",
                      "display": "Initial Population"
                    }
                  ]
                },
                "count": 1
              },
              {
                "identifier": {
                  "value": "numerator-identifier"
                },
                "code": {
                  "coding": [
                    {
                      "system": "http://terminology.hl7.org/CodeSystem/measure-population",
                      "code": "numerator",
                      "display": "Numerator"
                    }
                  ]
                },
                "count": 0
              },
              {
                "identifier": {
                  "value": "denominator-identifier"
                },
                "code": {
                  "coding": [
                    {
                      "system": "http://terminology.hl7.org/CodeSystem/measure-population",
                      "code": "denominator",
                      "display": "Denominator"
                    }
                  ]
                },
                "count": 1
              },
              {
                "identifier": {
                  "value": "denominator-exclusions-identifier"
                },
                "code": {
                  "coding": [
                    {
                      "system": "http://terminology.hl7.org/CodeSystem/measure-population",
                      "code": "denominator-exclusion",
                      "display": "Denominator Exclusion"
                    }
                  ]
                },
                "count": 0
              }
            ],
            "measureScore": 0.0
          }
        ],
        "evaluatedResources": {
          "reference": "#8e9b10fb-a518-403e-a06a-6fe93e38dd09"
        }
      },
      "request": {
        "method": "PUT",
        "url": "MeasureReport/measurereport-denom-EXM130-FHIR3"
      }
    },
    {
      "resource": {
        "resourceType": "Patient",
        "id": "denom-EXM130-FHIR3",
        "meta": {
          "profile": [
            "http://hl7.org/fhir/us/core/StructureDefinition/us-core-patient"
          ]
        },
        "extension": [
          {
            "url": "http://hl7.org/fhir/us/core/StructureDefinition/us-core-race",
            "extension": [
              {
                "url": "ombCategory",
                "valueCoding": {
                  "system": "urn:oid:2.16.840.1.113883.6.238",
                  "code": "2028-9",
                  "display": "Asian"
                }
              }
            ]
          },
          {
            "url": "http://hl7.org/fhir/us/core/StructureDefinition/us-core-ethnicity",
            "extension": [
              {
                "url": "ombCategory",
                "valueCoding": {
                  "system": "urn:oid:2.16.840.1.113883.6.238",
                  "code": "2135-2",
                  "display": "Hispanic or Latino"
                }
              }
            ]
          }
        ],
        "identifier": [
          {
            "use": "usual",
            "type": {
              "coding": [
                {
                  "system": "http://terminology.hl7.org/CodeSystem/v2-0203",
                  "code": "MR",
                  "display": "Medical Record Number"
                }
              ]
            },
            "system": "http://hospital.smarthealthit.org",
            "value": "999999992"
          }
        ],
        "name": [
          {
            "family": "Dere",
            "given": [
              "Ben"
            ]
          }
        ],
        "gender": "male",
        "birthDate": "1965-01-01"
      },
      "request": {
        "method": "PUT",
        "url": "Patient/denom-EXM130-FHIR3"
      }
    },
    {
      "resource": {
        "resourceType": "Procedure",
        "id": "denom-EXM130-FHIR3-2",
        "meta": {
          "profile": [
            "http://hl7.org/fhir/us/core/StructureDefinition/us-core-procedure"
          ]
        },
        "status": "completed",
        "code": {
          "coding": [
            {
              "system": "http://www.ama-assn.org/go/cpt",
              "code": "44393",
              "display": "Colonoscopy through stoma; with ablation of tumor(s), polyp(s), or other lesion(s) not amenable to removal by hot biopsy forceps, bipolar cautery or snare technique"
            }
          ]
        },
        "subject": {
          "reference": "Patient/denom-EXM130-FHIR3"
        },
        "performedPeriod": {
          "start": "2009-12-30T12:00:00",
          "end": "2009-12-30T13:00:00"
        }
      },
      "request": {
        "method": "PUT",
        "url": "Procedure/denom-EXM130-FHIR3-2"
      }
    }
  ]
}