{
    "resourceType": "Bundle",
    "type": "transaction",
    "entry": [        
        {
            "resource": {
                "resourceType": "Library",
                "id": "library-fhir-helpers",
                "version": "3.0.0",
                "name": "FHIRHelpers",
                "status": "active",
                "experimental": true,
                "type": {
                  "coding": [
                    {
                      "system": "http://hl7.org/fhir/codesystem-library-type.html",
                      "code": "logic-library"
                    }
                  ]
                },
                "content": [
                  {
                    "contentType": "application/elm+xml",
                    "data": ""
                  },
                  {
                    "contentType": "text/cql",
                    "data": ""
                  }
                ]
              },
            "request": {
                "method": "PUT",
                "url": "Library/library-fhir-helpers"
            }
        },
        {
            "resource": {
                "resourceType": "Library",
                "id": "library-mat-global-common-functions-FHIR3",
                "version": "4.0.000",
                "name": "MATGlobalCommonFunctions_FHIR3",
                "status": "active",
                "experimental": true,
                "type": {
                  "coding": [
                    {
                      "system": "http://hl7.org/fhir/codesystem-library-type.html",
                      "code": "logic-library"
                    }
                  ]
                },
                "relatedArtifact": [
                  {
                    "type": "depends-on",
                    "resource": {
                      "reference": "Library/library-fhir-helpers"
                    }
                  }
                ],
                "dataRequirement": [
                  {
                    "type": "Encounter",
                    "codeFilter": [
                      {
                        "path": "type",
                        "valueSetString": "http://cts.nlm.nih.gov/fhir/ValueSet/2.16.840.1.113883.3.666.5.307"
                      }
                    ]
                  },
                  {
                    "type": "Encounter",
                    "codeFilter": [
                      {
                        "path": "type",
                        "valueSetString": "http://cts.nlm.nih.gov/fhir/ValueSet/2.16.840.1.113883.3.117.1.7.1.292"
                      }
                    ]
                  },
                  {
                    "type": "Condition",
                    "codeFilter": [
                      {
                        "path": "id"
                      }
                    ]
                  },
                  {
                    "type": "Condition",
                    "codeFilter": [
                      {
                        "path": "id"
                      }
                    ]
                  },
                  {
                    "type": "Location",
                    "codeFilter": [
                      {
                        "path": "id"
                      }
                    ]
                  },
                  {
                    "type": "Encounter",
                    "codeFilter": [
                      {
                        "path": "type",
                        "valueSetString": "http://cts.nlm.nih.gov/fhir/ValueSet/2.16.840.1.113762.1.4.1111.143"
                      }
                    ]
                  },
                  {
                    "type": "Encounter",
                    "codeFilter": [
                      {
                        "path": "type",
                        "valueSetString": "http://cts.nlm.nih.gov/fhir/ValueSet/2.16.840.1.113883.3.117.1.7.1.292"
                      }
                    ]
                  }
                ],
                "content": [
                  {
                    "contentType": "application/elm+xml",
                    "data": ""
                  },
                  {
                    "contentType": "text/cql",
                    "data": ""
                  }
                ]
              },
            "request": {
                "method": "PUT",
                "url": "Library/library-mat-global-common-functions-FHIR3"
            }
        },
        {
            "resource": {
                "resourceType": "Library",
                "id": "library-supplemental-data-elements-FHIR3",
                "version": "1.0.0",
                "name": "SupplementalDataElements_FHIR3",
                "status": "active",
                "experimental": true,
                "type": {
                  "coding": [
                    {
                      "system": "http://hl7.org/fhir/codesystem-library-type.html",
                      "code": "logic-library"
                    }
                  ]
                },
                "relatedArtifact": [
                  {
                    "type": "depends-on",
                    "resource": {
                      "reference": "Library/library-fhir-helpers"
                    }
                  }
                ],
                "dataRequirement": [
                  {
                    "type": "Coverage",
                    "codeFilter": [
                      {
                        "path": "type",
                        "valueSetString": "http://cts.nlm.nih.gov/fhir/ValueSet/2.16.840.1.114222.4.11.3591"
                      }
                    ]
                  }
                ],
                "content": [
                  {
                    "contentType": "application/elm+xml",
                    "data": ""
                  },
                  {
                    "contentType": "text/cql",
                    "data": ""
                  }
                ]
              },
            "request": {
                "method": "PUT",
                "url": "Library/library-supplemental-data-elements-FHIR3"
            }
        },
        {
            "resource": {
                "resourceType": "Library",
                "id": "library-tjc-overall-FHIR3",
                "version": "3.6.000",
                "name": "TJC_Overall_FHIR3",
                "status": "active",
                "experimental": true,
                "type": {
                  "coding": [
                    {
                      "system": "http://hl7.org/fhir/codesystem-library-type.html",
                      "code": "logic-library"
                    }
                  ]
                },
                "relatedArtifact": [
                  {
                    "type": "depends-on",
                    "resource": {
                      "reference": "Library/library-fhir-helpers"
                    }
                  },
                  {
                    "type": "depends-on",
                    "resource": {
                      "reference": "Library/library-mat-global-common-functions-FHIR3"
                    }
                  },
                  {
                    "type": "depends-on",
                    "resource": {
                      "reference": "Library/library-supplemental-data-elements-FHIR3"
                    }
                  },
                  {
                    "type": "depends-on",
                    "url": "urn:hl7-org:elm-types:r1"
                  },
                  {
                    "type": "depends-on",
                    "url": "http://hl7.org/fhir|3.0.0"
                  }
                ],
                "dataRequirement": [
                  {
                    "type": "ProcedureRequest",
                    "codeFilter": [
                      {
                        "path": "code",
                        "valueSetString": "https://cts.nlm.nih.gov/fhir/ValueSet/1.3.6.1.4.1.33895.1.3.0.45"
                      }
                    ]
                  },
                  {
                    "type": "Procedure",
                    "codeFilter": [
                      {
                        "path": "code",
                        "valueSetString": "https://cts.nlm.nih.gov/fhir/ValueSet/1.3.6.1.4.1.33895.1.3.0.45"
                      }
                    ]
                  },
                  {
                    "type": "Encounter",
                    "codeFilter": [
                      {
                        "path": "type",
                        "valueSetString": "https://cts.nlm.nih.gov/fhir/ValueSet/2.16.840.1.113883.3.117.1.7.1.424"
                      }
                    ]
                  },
                  {
                    "type": "Patient"
                  }
                ],
                "content": [
                  {
                    "contentType": "text/cql",
                    "data": ""
                  },
                  {
                    "contentType": "application/elm+xml",
                    "data": ""
                  }
                ]
              },
            "request": {
                "method": "PUT",
                "url": "Library/library-tjc-overall-FHIR3"
            }
        }
    ]
}