{
    "resourceType": "Bundle",
    "id": "6bc9a1ed-136a-4e87-afc6-aa5b4922b07c",
    "type": "transaction",
    "entry": [
        {
            "resource": {
                "resourceType": "Patient",
                "id": "f374624b-bc08-47ac-986e-d155be195056-1",
                "meta": {
                    "profile": [
                      "http://hl7.org/fhir/us/core/StructureDefinition/us-core-patient"
                    ]
                  },
                  "extension": [
                    {
                      "url": "http://hl7.org/fhir/us/core/StructureDefinition/us-core-race",
                      "extension": [
                        {
                          "url": "ombCategory",
                          "valueCoding": {
                            "system": "urn:oid:2.16.840.1.113883.6.238",
                            "code": "2028-9",
                            "display": "Asian"
                          }
                        }
                      ]
                    },
                    {
                      "url": "http://hl7.org/fhir/us/core/StructureDefinition/us-core-ethnicity",
                      "extension": [
                        {
                          "url": "ombCategory",
                          "valueCoding": {
                            "system": "urn:oid:2.16.840.1.113883.6.238",
                            "code": "2135-2",
                            "display": "Hispanic or Latino"
                          }
                        }
                      ]
                    }
                  ],
                  "identifier": [
                    {
                      "use": "usual",
                      "type": {
                        "coding": [
                          {
                            "system": "http://terminology.hl7.org/CodeSystem/v2-0203",
                            "code": "MR",
                            "display": "Medical Record Number"
                          }
                        ]
                      },
                      "system": "http://hospital.smarthealthit.org",
                      "value": "999999994"
                    }
                  ],
                  "name": [
                    {
                      "family": "Bud",
                      "given": [
                        "Dale"
                      ]
                    }
                  ],
                "birthDate": "1965-01-01",
                "gender": "male"
            },
            "request": {
                "method": "PUT",
                "url": "Patient/f374624b-bc08-47ac-986e-d155be195056-1"
            }
        },
        {
            "resource": {
                "resourceType": "Encounter",
                "id": "f374624b-bc08-47ac-986e-d155be195056-2",
                "subject": {
                    "reference": "Patient/f374624b-bc08-47ac-986e-d155be195056-1"
                },
                "meta": {
                    "profile": [
                      "http://hl7.org/fhir/us/core/StructureDefinition/us-core-encounter"
                    ]
                  },
                  "status": "finished",
                  "class": {
                    "system": "http://terminology.hl7.org/CodeSystem/v3-ActCode",
                    "code": "AMB",
                    "display": "ambulatory"
                  },
                "type": [
                    {
                        "coding": [
                            {
                                "system": "http://www.ama-assn.org/go/cpt",
                                "code": "99201",
                                "display": "Office or other outpatient visit for the evaluation and management of a new patient, which requires these 3 key components: A problem focused history; A problem focused examination; Straightforward medical decision making. Counseling and/or coordination of care with other physicians, other qualified health care professionals, or agencies are provided consistent with the nature of the problem(s) and the patient's and/or family's needs. Usually, the presenting problem(s) are self limited or minor. Typically, 10 minutes are spent face-to-face with the patient and/or family."
                            }
                        ] 
                    }
                ],
                "period": {
                    "start": "2019-05-30T00:00:00-00:00",
                    "end": "2019-05-31T00:00:00-00:00"
                }
            },
            "request": {
                "method": "PUT",
                "url": "Encounter/f374624b-bc08-47ac-986e-d155be195056-2"
            }
        },
        {
            "resource": {
                "resourceType": "Procedure",
                "id": "f374624b-bc08-47ac-986e-d155be195056-4",
                "meta": {
                    "profile": [
                        "http://hl7.org/fhir/us/core/StructureDefinition/us-core-procedure"
                    ]
                },
                "status": "completed",
                "code": {
                    "coding": [
                        {
                            "system": "http://www.ama-assn.org/go/cpt",
                            "code": "44393",
                            "display": "Colonoscopy through stoma; with ablation of tumor(s), polyp(s), or other lesion(s) not amenable to removal by hot biopsy forceps, bipolar cautery or snare technique"
                        }
                    ]
                },
                "subject": {
                    "reference": "Patient/f374624b-bc08-47ac-986e-d155be195056-1"
                },
                "performedPeriod": {
                    "start": "2009-12-30T12:00:00",
                    "end": "2009-12-30T13:00:00"
                }
            },
            "request": {
                "method": "PUT",
                "url": "Procedure/f374624b-bc08-47ac-986e-d155be195056-4"
            }
        },
        {
            "resource": {
                "resourceType": "Patient",
                "id": "36f77e73-2190-4afe-a7c3-f3eb0ee1c855-1",
                "meta": {
                    "profile": [
                      "http://hl7.org/fhir/us/core/StructureDefinition/us-core-patient"
                    ]
                  },
                  "extension": [
                    {
                      "url": "http://hl7.org/fhir/us/core/StructureDefinition/us-core-race",
                      "extension": [
                        {
                          "url": "ombCategory",
                          "valueCoding": {
                            "system": "urn:oid:2.16.840.1.113883.6.238",
                            "code": "2028-9",
                            "display": "Asian"
                          }
                        }
                      ]
                    },
                    {
                      "url": "http://hl7.org/fhir/us/core/StructureDefinition/us-core-ethnicity",
                      "extension": [
                        {
                          "url": "ombCategory",
                          "valueCoding": {
                            "system": "urn:oid:2.16.840.1.113883.6.238",
                            "code": "2135-2",
                            "display": "Hispanic or Latino"
                          }
                        }
                      ]
                    }
                  ],
                  "identifier": [
                    {
                      "use": "usual",
                      "type": {
                        "coding": [
                          {
                            "system": "http://terminology.hl7.org/CodeSystem/v2-0203",
                            "code": "MR",
                            "display": "Medical Record Number"
                          }
                        ]
                      },
                      "system": "http://hospital.smarthealthit.org",
                      "value": "999999994"
                    }
                  ],
                  "name": [
                    {
                      "family": "Dobbey",
                      "given": [
                        "Albert"
                      ]
                    }
                  ],
                "birthDate": "1965-01-01",
                "gender": "male"
            },
            "request": {
                "method": "PUT",
                "url": "Patient/36f77e73-2190-4afe-a7c3-f3eb0ee1c855-1"
            }
        },
        {
            "resource": {
                "resourceType": "Encounter",
                "id": "36f77e73-2190-4afe-a7c3-f3eb0ee1c855-2",
                "subject": {
                    "reference": "Patient/36f77e73-2190-4afe-a7c3-f3eb0ee1c855-1"
                },
                "meta": {
                    "profile": [
                      "http://hl7.org/fhir/us/core/StructureDefinition/us-core-encounter"
                    ]
                  },
                  "status": "finished",
                  "class": {
                    "system": "http://terminology.hl7.org/CodeSystem/v3-ActCode",
                    "code": "AMB",
                    "display": "ambulatory"
                  },
                "type": [
                    {
                        "coding": [
                            {
                                "system": "http://www.ama-assn.org/go/cpt",
                                "code": "99201",
                                "display": "Office or other outpatient visit for the evaluation and management of a new patient, which requires these 3 key components: A problem focused history; A problem focused examination; Straightforward medical decision making. Counseling and/or coordination of care with other physicians, other qualified health care professionals, or agencies are provided consistent with the nature of the problem(s) and the patient's and/or family's needs. Usually, the presenting problem(s) are self limited or minor. Typically, 10 minutes are spent face-to-face with the patient and/or family."
                            }
                        ] 
                    }
                ],
                "period": {
                    "start": "2019-05-30T00:00:00-00:00",
                    "end": "2019-05-31T00:00:00-00:00"
                }
            },
            "request": {
                "method": "PUT",
                "url": "Encounter/36f77e73-2190-4afe-a7c3-f3eb0ee1c855-2"
            }
        },
        {
            "resource": {
                "resourceType": "Procedure",
                "id": "36f77e73-2190-4afe-a7c3-f3eb0ee1c855-4",
                "meta": {
                    "profile": [
                        "http://hl7.org/fhir/us/core/StructureDefinition/us-core-procedure"
                    ]
                },
                "status": "completed",
                "code": {
                    "coding": [
                        {
                            "system": "http://www.ama-assn.org/go/cpt",
                            "code": "44393",
                            "display": "Colonoscopy through stoma; with ablation of tumor(s), polyp(s), or other lesion(s) not amenable to removal by hot biopsy forceps, bipolar cautery or snare technique"
                        }
                    ]
                },
                "subject": {
                    "reference": "Patient/36f77e73-2190-4afe-a7c3-f3eb0ee1c855-1"
                },
                "performedPeriod": {
                    "start": "2019-03-01T00:00:00",
                    "end": "2019-03-02T00:00:00"
                }
            },
            "request": {
                "method": "PUT",
                "url": "Procedure/36f77e73-2190-4afe-a7c3-f3eb0ee1c855-4"
            }
        }
    ]
}