{
  "resourceType": "Bundle",
  "id": "tests-numer-EXM108-FHIR4-bundle",
  "type": "transaction",
  "entry": [
    {
      "resource": {
        "resourceType": "Condition",
        "id": "numer-EXM108-FHIR4-2",
        "meta": {
          "profile": [
            "http://hl7.org/fhir/us/core/StructureDefinition/us-core-condition"
          ]
        },
        "verificationStatus": {
          "coding": [
            {
              "system": "http://terminology.hl7.org/CodeSystem/condition-ver-status",
              "code": "confirmed",
              "display": "Confirmed"
            }
          ]
        },
        "category": [
          {
            "coding": [
              {
                "system": "http://terminology.hl7.org/CodeSystem/condition-category",
                "code": "encounter-diagnosis",
                "display": "Encounter Diagnosis"
              }
            ]
          }
        ],
        "code": {
          "coding": [
            {
              "system": "http://snomed.info/sct",
              "code": "213213007",
              "display": "Cardiac arrest as a complication of care (disorder)"
            }
          ]
        },
        "subject": {
          "reference": "Patient/numer-EXM108-FHIR4"
        }
      },
      "request": {
        "method": "PUT",
        "url": "Condition/numer-EXM108-FHIR4-2"
      }
    },
    {
      "resource": {
        "resourceType": "Encounter",
        "id": "numer-EXM108-FHIR4-3",
        "meta": {
          "profile": [
            "http://hl7.org/fhir/us/core/StructureDefinition/us-core-encounter"
          ]
        },
        "status": "finished",
        "class": {
          "system": "http://terminology.hl7.org/CodeSystem/v3-ActCode",
          "code": "IMP",
          "display": "inpatient encounter"
        },
        "type": [
          {
            "coding": [
              {
                "system": "http://snomed.info/sct",
                "code": "32485007",
                "display": "Hospital admission (procedure)"
              }
            ]
          }
        ],
        "subject": {
          "reference": "Patient/numer-EXM108-FHIR4"
        },
        "period": {
          "start": "2019-01-16T08:30:00-07:00",
          "end": "2019-01-20T08:30:00-07:00"
        },
        "diagnosis": [
          {
            "condition": {
              "reference": "Condition/numer-EXM108-FHIR4-2"
            },
            "use": {
              "coding": [
                {
                  "system": "http://hl7.org/fhir/diagnosis-role",
                  "code": "billing",
                  "display": "Billing"
                }
              ]
            },
            "rank": 1
          }
        ],
        "hospitalization": {
          "dischargeDisposition": {
            "coding": [
              {
                "system": "http://snomed.info/sct",
                "code": "306701001",
                "display": "Discharge to community hospital (procedure)"
              }
            ]
          }
        }
      },
      "request": {
        "method": "PUT",
        "url": "Encounter/numer-EXM108-FHIR4-3"
      }
    },
    {
      "resource": {
        "resourceType": "Patient",
        "id": "numer-EXM108-FHIR4",
        "meta": {
          "profile": [
            "http://hl7.org/fhir/us/core/StructureDefinition/us-core-patient"
          ]
        },
        "extension": [
          {
            "url": "http://hl7.org/fhir/us/core/StructureDefinition/us-core-race",
            "extension": [
              {
                "url": "ombCategory",
                "valueCoding": {
                  "system": "urn:oid:2.16.840.1.113883.6.238",
                  "code": "2106-3",
                  "display": "White"
                }
              }
            ]
          },
          {
            "url": "http://hl7.org/fhir/us/core/StructureDefinition/us-core-ethnicity",
            "extension": [
              {
                "url": "ombCategory",
                "valueCoding": {
                  "system": "urn:oid:2.16.840.1.113883.6.238",
                  "code": "2186-5",
                  "display": "Not Hispanic or Latino"
                }
              }
            ]
          }
        ],
        "identifier": [
          {
            "use": "usual",
            "type": {
              "coding": [
                {
                  "system": "http://terminology.hl7.org/CodeSystem/v2-0203",
                  "code": "MR",
                  "display": "Medical Record Number"
                }
              ]
            },
            "system": "http://hospital.smarthealthit.org",
            "value": "999999997"
          }
        ],
        "name": [
          {
            "family": "Smith",
            "given": [
              "Jill"
            ]
          }
        ],
        "gender": "female",
        "birthDate": "1963-09-13"
      },
      "request": {
        "method": "PUT",
        "url": "Patient/numer-EXM108-FHIR4"
      }
    }
  ]
}