{
    "resourceType": "Bundle",
    "id": "cms105-stu3-both",
    "type": "transaction",
    "entry": [
        {
            "resource": {
                "resourceType": "Condition",
                "id": "denom-cms105-stu3-1",
                "meta": {
                    "profile": [
                        "http://hl7.org/fhir/us/core/StructureDefinition/us-core-condition"
                    ]
                },
                "verificationStatus": "confirmed",
                "category": [
                    {
                        "coding": [
                            {
                                "system": "http://terminology.hl7.org/CodeSystem/condition-category",
                                "code": "encounter-diagnosis",
                                "display": "Encounter Diagnosis"
                            }
                        ]
                    }
                ],
                "code": {
                    "coding": [
                        {
                            "system": "http://snomed.info/sct",
                            "code": "116288000",
                            "display": "Paralytic stroke (disorder)"
                        }
                    ]
                },
                "subject": {
                    "reference": "Patient/denom-cms105-stu3"
                }
            },
            "request": {
                "method": "PUT",
                "url": "Condition/denom-cms105-stu3-1"
            }
        },
        {
            "resource": {
                "resourceType": "Encounter",
                "id": "denom-cms105-stu3-2",
                "meta": {
                    "profile": [
                        "http://hl7.org/fhir/us/core/StructureDefinition/us-core-encounter"
                    ]
                },
                "status": "finished",
                "class": {
                    "system": "http://terminology.hl7.org/CodeSystem/v3-ActCode",
                    "code": "IMP",
                    "display": "inpatient encounter"
                },
                "type": [
                    {
                        "coding": [
                            {
                                "system": "http://snomed.info/sct",
                                "code": "32485007",
                                "display": "Hospital admission (procedure)"
                            }
                        ]
                    }
                ],
                "subject": {
                    "reference": "Patient/denom-cms105-stu3"
                },
                "period": {
                    "start": "2019-08-21T00:00:00-06:00",
                    "end": "2019-12-19T08:15:00-07:00"
                },
                "diagnosis": [
                    {
                        "condition": {
                            "reference": "Condition/denom-cms105-stu3-1"
                        },
                        "role": {
                            "coding": [
                                {
                                    "system": "http://hl7.org/fhir/diagnosis-role",
                                    "code": "billing",
                                    "display": "Billing"
                                }
                            ]
                        },
                        "rank": 1
                    }
                ]
            },
            "request": {
                "method": "PUT",
                "url": "Encounter/denom-cms105-stu3-2"
            }
        },
        {
            "resource": {
                "resourceType": "Patient",
                "id": "denom-cms105-stu3",
                "meta": {
                    "profile": [
                        "http://hl7.org/fhir/us/core/StructureDefinition/us-core-patient"
                    ]
                },
                "extension": [
                    {
                        "url": "http://hl7.org/fhir/us/core/StructureDefinition/us-core-race",
                        "extension": [
                            {
                                "url": "ombCategory",
                                "valueCoding": {
                                    "system": "urn:oid:2.16.840.1.113883.6.238",
                                    "code": "2054-5",
                                    "display": "Black or African American"
                                }
                            }
                        ]
                    },
                    {
                        "url": "http://hl7.org/fhir/us/core/StructureDefinition/us-core-ethnicity",
                        "extension": [
                            {
                                "url": "ombCategory",
                                "valueCoding": {
                                    "system": "urn:oid:2.16.840.1.113883.6.238",
                                    "code": "2135-2",
                                    "display": "Hispanic or Latino"
                                }
                            }
                        ]
                    }
                ],
                "identifier": [
                    {
                        "use": "usual",
                        "type": {
                            "coding": [
                                {
                                    "system": "http://terminology.hl7.org/CodeSystem/v2-0203",
                                    "code": "MR",
                                    "display": "Medical Record Number"
                                }
                            ]
                        },
                        "system": "http://hospital.smarthealthit.org",
                        "value": "9999999910"
                    }
                ],
                "name": [
                    {
                        "family": "Jones",
                        "given": [
                            "Rick"
                        ]
                    }
                ],
                "gender": "male",
                "birthDate": "1955-11-05"
            },
            "request": {
                "method": "PUT",
                "url": "Patient/denom-cms105-stu3"
            }
        },
        {
            "resource": {
                "resourceType": "Condition",
                "id": "numer-cms105-stu3-1",
                "meta": {
                    "profile": [
                        "http://hl7.org/fhir/us/core/StructureDefinition/us-core-condition"
                    ]
                },
                "verificationStatus": "confirmed",
                "category": [
                    {
                        "coding": [
                            {
                                "system": "http://terminology.hl7.org/CodeSystem/condition-category",
                                "code": "encounter-diagnosis",
                                "display": "Encounter Diagnosis"
                            }
                        ]
                    }
                ],
                "code": {
                    "coding": [
                        {
                            "system": "http://snomed.info/sct",
                            "code": "116288000",
                            "display": "Paralytic stroke (disorder)"
                        }
                    ]
                },
                "subject": {
                    "reference": "Patient/numer-cms105-stu3"
                }
            },
            "request": {
                "method": "PUT",
                "url": "Condition/numer-cms105-stu3-1"
            }
        },
        {
            "resource": {
                "resourceType": "Encounter",
                "id": "numer-cms105-stu3-2",
                "meta": {
                    "profile": [
                        "http://hl7.org/fhir/us/core/StructureDefinition/us-core-encounter"
                    ]
                },
                "status": "finished",
                "class": {
                    "system": "http://terminology.hl7.org/CodeSystem/v3-ActCode",
                    "code": "IMP",
                    "display": "inpatient encounter"
                },
                "type": [
                    {
                        "coding": [
                            {
                                "system": "http://snomed.info/sct",
                                "code": "32485007",
                                "display": "Hospital admission (procedure)"
                            }
                        ]
                    }
                ],
                "subject": {
                    "reference": "Patient/numer-cms105-stu3"
                },
                "period": {
                    "start": "2019-08-21T00:00:00-06:00",
                    "end": "2019-12-19T08:15:00-07:00"
                },
                "diagnosis": [
                    {
                        "condition": {
                            "reference": "Condition/numer-cms105-stu3-1"
                        },
                        "role": {
                            "coding": [
                                {
                                    "system": "http://hl7.org/fhir/diagnosis-role",
                                    "code": "billing",
                                    "display": "Billing"
                                }
                            ]
                        },
                        "rank": 1
                    }
                ]
            },
            "request": {
                "method": "PUT",
                "url": "Encounter/numer-cms105-stu3-2"
            }
        },
        {
            "resource": {
                "resourceType": "MedicationRequest",
                "id": "numer-cms105-stu3-5",
                "status": "completed",
                "intent": "order",
                "category": {
                    "coding": [
                        {
                            "system": "http://terminology.hl7.org/CodeSystem/medicationrequest-category",
                            "code": "discharge",
                            "display": "Discharge"
                        }
                    ]
                },
                "medicationCodeableConcept": {
                    "coding": [
                        {
                            "system": "http://www.nlm.nih.gov/research/umls/rxnorm",
                            "code": "197903",
                            "display": "Lovastatin 10 MG Oral Tablet"
                        }
                    ]
                },
                "subject": {
                    "reference": "Patient/numer-cms105-stu3"
                },
                "authoredOn": "2019-12-19T08:00:00-07:00"
            },
            "request": {
                "method": "PUT",
                "url": "MedicationRequest/numer-cms105-stu3-5"
            }
        },
        {
            "resource": {
                "resourceType": "Patient",
                "id": "numer-cms105-stu3",
                "meta": {
                    "profile": [
                        "http://hl7.org/fhir/us/core/StructureDefinition/us-core-patient"
                    ]
                },
                "extension": [
                    {
                        "url": "http://hl7.org/fhir/us/core/StructureDefinition/us-core-race",
                        "extension": [
                            {
                                "url": "ombCategory",
                                "valueCoding": {
                                    "system": "urn:oid:2.16.840.1.113883.6.238",
                                    "code": "2106-3",
                                    "display": "White"
                                }
                            }
                        ]
                    },
                    {
                        "url": "http://hl7.org/fhir/us/core/StructureDefinition/us-core-ethnicity",
                        "extension": [
                            {
                                "url": "ombCategory",
                                "valueCoding": {
                                    "system": "urn:oid:2.16.840.1.113883.6.238",
                                    "code": "2186-5",
                                    "display": "Not Hispanic or Latino"
                                }
                            }
                        ]
                    }
                ],
                "identifier": [
                    {
                        "use": "usual",
                        "type": {
                            "coding": [
                                {
                                    "system": "http://terminology.hl7.org/CodeSystem/v2-0203",
                                    "code": "MR",
                                    "display": "Medical Record Number"
                                }
                            ]
                        },
                        "system": "http://hospital.smarthealthit.org",
                        "value": "9999999911"
                    }
                ],
                "name": [
                    {
                        "family": "Jones",
                        "given": [
                            "Louise"
                        ]
                    }
                ],
                "gender": "female",
                "birthDate": "1971-11-21"
            },
            "request": {
                "method": "PUT",
                "url": "Patient/numer-cms105-stu3"
            }
        }
    ]
}
