{
  "resourceType": "Bundle",
  "id": "tests-numer-EXM105-FHIR3-bundle",
  "type": "transaction",
  "entry": [
    {
      "resource": {
        "resourceType": "Condition",
        "id": "numer-EXM105-FHIR3-1",
        "meta": {
          "profile": [
            "http://hl7.org/fhir/us/core/StructureDefinition/us-core-condition"
          ]
        },
        "verificationStatus": "confirmed",
        "category": [
          {
            "coding": [
              {
                "system": "http://terminology.hl7.org/CodeSystem/condition-category",
                "code": "encounter-diagnosis",
                "display": "Encounter Diagnosis"
              }
            ]
          }
        ],
        "code": {
          "coding": [
            {
              "system": "http://snomed.info/sct",
              "code": "116288000",
              "display": "Paralytic stroke (disorder)"
            }
          ]
        },
        "subject": {
          "reference": "Patient/numer-EXM105-FHIR3"
        }
      },
      "request": {
        "method": "PUT",
        "url": "Condition/numer-EXM105-FHIR3-1"
      }
    },
    {
      "resource": {
        "resourceType": "Encounter",
        "id": "numer-EXM105-FHIR3-2",
        "meta": {
          "profile": [
            "http://hl7.org/fhir/us/core/StructureDefinition/us-core-encounter"
          ]
        },
        "status": "finished",
        "class": {
          "system": "http://terminology.hl7.org/CodeSystem/v3-ActCode",
          "code": "IMP",
          "display": "inpatient encounter"
        },
        "type": [
          {
            "coding": [
              {
                "system": "http://snomed.info/sct",
                "code": "32485007",
                "display": "Hospital admission (procedure)"
              }
            ]
          }
        ],
        "subject": {
          "reference": "Patient/numer-EXM105-FHIR3"
        },
        "period": {
          "start": "2019-08-21T00:00:00-06:00",
          "end": "2019-12-19T08:15:00-07:00"
        },
        "diagnosis": [
          {
            "condition": {
              "reference": "Condition/numer-EXM105-FHIR3-1"
            },
            "role": {
              "coding": [
                {
                  "system": "http://hl7.org/fhir/diagnosis-role",
                  "code": "billing",
                  "display": "Billing"
                }
              ]
            },
            "rank": 1
          }
        ]
      },
      "request": {
        "method": "PUT",
        "url": "Encounter/numer-EXM105-FHIR3-2"
      }
    },
    {
      "resource": {
        "resourceType": "MeasureReport",
        "id": "measurereport-numer-EXM105-FHIR3",
        "contained": [
          {
            "resourceType": "Bundle",
            "id": "cd83451a-12d3-4be6-8398-58bea7dd6398",
            "type": "collection",
            "entry": [
              {
                "fullUrl": "f71902fd-9ac6-49af-8219-14ceb0d0bb5c",
                "resource": {
                  "resourceType": "List",
                  "id": "f71902fd-9ac6-49af-8219-14ceb0d0bb5c",
                  "title": "initial-population",
                  "entry": [
                    {
                      "item": {
                        "reference": "#Condition/numer-EXM105-FHIR3-1/_history/1"
                      }
                    },
                    {
                      "item": {
                        "reference": "#Encounter/numer-EXM105-FHIR3-2/_history/1"
                      }
                    },
                    {
                      "item": {
                        "reference": "#Patient/numer-EXM105-FHIR3/_history/1"
                      }
                    }
                  ]
                }
              },
              {
                "fullUrl": "6bb719fc-cb4c-4ac2-acc9-456892f758a0",
                "resource": {
                  "resourceType": "List",
                  "id": "6bb719fc-cb4c-4ac2-acc9-456892f758a0",
                  "title": "denominator",
                  "entry": [
                    {
                      "item": {
                        "reference": "#Condition/numer-EXM105-FHIR3-1/_history/1"
                      }
                    }
                  ]
                }
              },
              {
                "fullUrl": "Condition/numer-EXM105-FHIR3-1/_history/1",
                "resource": {
                  "resourceType": "Condition",
                  "id": "numer-EXM105-FHIR3-1",
                  "meta": {
                    "versionId": "1",
                    "lastUpdated": "2019-12-05T04:05:11.566-07:00",
                    "profile": [
                      "http://hl7.org/fhir/us/core/StructureDefinition/us-core-condition"
                    ]
                  },
                  "verificationStatus": "confirmed",
                  "category": [
                    {
                      "coding": [
                        {
                          "system": "http://terminology.hl7.org/CodeSystem/condition-category",
                          "code": "encounter-diagnosis",
                          "display": "Encounter Diagnosis"
                        }
                      ]
                    }
                  ],
                  "code": {
                    "coding": [
                      {
                        "system": "http://snomed.info/sct",
                        "code": "116288000",
                        "display": "Paralytic stroke (disorder)"
                      }
                    ]
                  },
                  "subject": {
                    "reference": "Patient/numer-EXM105-FHIR3"
                  }
                }
              },
              {
                "fullUrl": "Encounter/numer-EXM105-FHIR3-2/_history/1",
                "resource": {
                  "resourceType": "Encounter",
                  "id": "numer-EXM105-FHIR3-2",
                  "meta": {
                    "versionId": "1",
                    "lastUpdated": "2019-12-05T04:05:11.566-07:00",
                    "profile": [
                      "http://hl7.org/fhir/us/core/StructureDefinition/us-core-encounter"
                    ]
                  },
                  "status": "finished",
                  "class": {
                    "system": "http://terminology.hl7.org/CodeSystem/v3-ActCode",
                    "code": "IMP",
                    "display": "inpatient encounter"
                  },
                  "type": [
                    {
                      "coding": [
                        {
                          "system": "http://snomed.info/sct",
                          "code": "32485007",
                          "display": "Hospital admission (procedure)"
                        }
                      ]
                    }
                  ],
                  "subject": {
                    "reference": "Patient/numer-EXM105-FHIR3"
                  },
                  "period": {
                    "start": "2019-08-21T00:00:00-06:00",
                    "end": "2019-12-19T08:15:00-07:00"
                  },
                  "diagnosis": [
                    {
                      "condition": {
                        "reference": "Condition/numer-EXM105-FHIR3-1"
                      },
                      "role": {
                        "coding": [
                          {
                            "system": "http://hl7.org/fhir/diagnosis-role",
                            "code": "billing",
                            "display": "Billing"
                          }
                        ]
                      },
                      "rank": 1
                    }
                  ]
                }
              },
              {
                "fullUrl": "Patient/numer-EXM105-FHIR3/_history/1",
                "resource": {
                  "resourceType": "Patient",
                  "id": "numer-EXM105-FHIR3",
                  "meta": {
                    "versionId": "1",
                    "lastUpdated": "2019-12-05T04:05:11.566-07:00",
                    "profile": [
                      "http://hl7.org/fhir/us/core/StructureDefinition/us-core-patient"
                    ]
                  },
                  "text": {
                    "status": "generated",
                    "div": "<div xmlns=\"http://www.w3.org/1999/xhtml\"><div class=\"hapiHeaderText\">Louise <b>JONES </b></div><table class=\"hapiPropertyTable\"><tbody><tr><td>Identifier</td><td>9999999911</td></tr><tr><td>Date of birth</td><td><span>21 November 1971</span></td></tr></tbody></table></div>"
                  },
                  "extension": [
                    {
                      "url": "http://hl7.org/fhir/us/core/StructureDefinition/us-core-race",
                      "extension": [
                        {
                          "url": "ombCategory",
                          "valueCoding": {
                            "system": "urn:oid:2.16.840.1.113883.6.238",
                            "code": "2106-3",
                            "display": "White"
                          }
                        }
                      ]
                    },
                    {
                      "url": "http://hl7.org/fhir/us/core/StructureDefinition/us-core-ethnicity",
                      "extension": [
                        {
                          "url": "ombCategory",
                          "valueCoding": {
                            "system": "urn:oid:2.16.840.1.113883.6.238",
                            "code": "2186-5",
                            "display": "Not Hispanic or Latino"
                          }
                        }
                      ]
                    }
                  ],
                  "identifier": [
                    {
                      "use": "usual",
                      "type": {
                        "coding": [
                          {
                            "system": "http://terminology.hl7.org/CodeSystem/v2-0203",
                            "code": "MR",
                            "display": "Medical Record Number"
                          }
                        ]
                      },
                      "system": "http://hospital.smarthealthit.org",
                      "value": "9999999911"
                    }
                  ],
                  "name": [
                    {
                      "family": "Jones",
                      "given": [
                        "Louise"
                      ]
                    }
                  ],
                  "gender": "female",
                  "birthDate": "1971-11-21"
                }
              },
              {
                "fullUrl": "48b0d179-bc3b-40f4-b000-0ba0fc655151",
                "resource": {
                  "resourceType": "List",
                  "id": "48b0d179-bc3b-40f4-b000-0ba0fc655151",
                  "title": "numerator",
                  "entry": [
                    {
                      "item": {
                        "reference": "#MedicationRequest/numer-EXM105-FHIR3-5/_history/1"
                      }
                    }
                  ]
                }
              },
              {
                "fullUrl": "MedicationRequest/numer-EXM105-FHIR3-5/_history/1",
                "resource": {
                  "resourceType": "MedicationRequest",
                  "id": "numer-EXM105-FHIR3-5",
                  "meta": {
                    "versionId": "1",
                    "lastUpdated": "2019-12-05T04:05:11.566-07:00"
                  },
                  "status": "completed",
                  "intent": "order",
                  "category": {
                    "coding": [
                      {
                        "system": "http://terminology.hl7.org/CodeSystem/medicationrequest-category",
                        "code": "discharge",
                        "display": "Discharge"
                      }
                    ]
                  },
                  "medicationCodeableConcept": {
                    "coding": [
                      {
                        "system": "http://www.nlm.nih.gov/research/umls/rxnorm",
                        "code": "197903",
                        "display": "Lovastatin 10 MG Oral Tablet"
                      }
                    ]
                  },
                  "subject": {
                    "reference": "Patient/numer-EXM105-FHIR3"
                  },
                  "authoredOn": "2019-12-19T08:00:00-07:00"
                }
              }
            ]
          }
        ],
        "status": "complete",
        "type": "individual",
        "measure": {
          "reference": "Measure/measure-EXM105-FHIR3-8.0.000"
        },
        "patient": {
          "reference": "Patient/numer-EXM105-FHIR3"
        },
        "period": {
          "start": "2019-01-01T00:00:00-07:00",
          "end": "2019-12-31T00:00:00-07:00"
        },
        "group": [
          {
            "identifier": {
              "value": "group-1"
            },
            "population": [
              {
                "identifier": {
                  "value": "initial-population"
                },
                "code": {
                  "coding": [
                    {
                      "code": "initial-population"
                    }
                  ]
                },
                "count": 1
              },
              {
                "identifier": {
                  "value": "numerator"
                },
                "code": {
                  "coding": [
                    {
                      "code": "numerator"
                    }
                  ]
                },
                "count": 1
              },
              {
                "identifier": {
                  "value": "denominator"
                },
                "code": {
                  "coding": [
                    {
                      "code": "denominator"
                    }
                  ]
                },
                "count": 1
              },
              {
                "identifier": {
                  "value": "denominator-exclusion"
                },
                "code": {
                  "coding": [
                    {
                      "code": "denominator-exclusion"
                    }
                  ]
                },
                "count": 0
              }
            ],
            "measureScore": 1.0
          }
        ],
        "evaluatedResources": {
          "reference": "#cd83451a-12d3-4be6-8398-58bea7dd6398"
        }
      },
      "request": {
        "method": "PUT",
        "url": "MeasureReport/measurereport-numer-EXM105-FHIR3"
      }
    },
    {
      "resource": {
        "resourceType": "MedicationRequest",
        "id": "numer-EXM105-FHIR3-5",
        "status": "completed",
        "intent": "order",
        "category": {
          "coding": [
            {
              "system": "http://terminology.hl7.org/CodeSystem/medicationrequest-category",
              "code": "discharge",
              "display": "Discharge"
            }
          ]
        },
        "medicationCodeableConcept": {
          "coding": [
            {
              "system": "http://www.nlm.nih.gov/research/umls/rxnorm",
              "code": "197903",
              "display": "Lovastatin 10 MG Oral Tablet"
            }
          ]
        },
        "subject": {
          "reference": "Patient/numer-EXM105-FHIR3"
        },
        "authoredOn": "2019-12-19T08:00:00-07:00"
      },
      "request": {
        "method": "PUT",
        "url": "MedicationRequest/numer-EXM105-FHIR3-5"
      }
    },
    {
      "resource": {
        "resourceType": "Patient",
        "id": "numer-EXM105-FHIR3",
        "meta": {
          "profile": [
            "http://hl7.org/fhir/us/core/StructureDefinition/us-core-patient"
          ]
        },
        "extension": [
          {
            "url": "http://hl7.org/fhir/us/core/StructureDefinition/us-core-race",
            "extension": [
              {
                "url": "ombCategory",
                "valueCoding": {
                  "system": "urn:oid:2.16.840.1.113883.6.238",
                  "code": "2106-3",
                  "display": "White"
                }
              }
            ]
          },
          {
            "url": "http://hl7.org/fhir/us/core/StructureDefinition/us-core-ethnicity",
            "extension": [
              {
                "url": "ombCategory",
                "valueCoding": {
                  "system": "urn:oid:2.16.840.1.113883.6.238",
                  "code": "2186-5",
                  "display": "Not Hispanic or Latino"
                }
              }
            ]
          }
        ],
        "identifier": [
          {
            "use": "usual",
            "type": {
              "coding": [
                {
                  "system": "http://terminology.hl7.org/CodeSystem/v2-0203",
                  "code": "MR",
                  "display": "Medical Record Number"
                }
              ]
            },
            "system": "http://hospital.smarthealthit.org",
            "value": "9999999911"
          }
        ],
        "name": [
          {
            "family": "Jones",
            "given": [
              "Louise"
            ]
          }
        ],
        "gender": "female",
        "birthDate": "1971-11-21"
      },
      "request": {
        "method": "PUT",
        "url": "Patient/numer-EXM105-FHIR3"
      }
    }
  ]
}