{
  "resourceType": "Bundle",
  "id": "tests-denom-EXM161-FHIR3-bundle",
  "type": "transaction",
  "entry": [
    {
      "resource": {
        "resourceType": "Condition",
        "id": "denom-EXM161-FHIR3-8",
        "meta": {
          "profile": [
            "http://hl7.org/fhir/us/core/StructureDefinition/us-core-condition"
          ]
        },
        "verificationStatus": "confirmed",
        "category": [
          {
            "coding": [
              {
                "system": "http://terminology.hl7.org/CodeSystem/condition-category",
                "code": "encounter-diagnosis",
                "display": "Encounter Diagnosis"
              }
            ]
          }
        ],
        "code": {
          "coding": [
            {
              "system": "http://hl7.org/fhir/sid/icd-10",
              "code": "F32.0",
              "display": "Major depressive disorder, single episode, mild"
            }
          ]
        },
        "subject": {
          "reference": "Patient/denom-EXM161-FHIR3"
        }
      },
      "request": {
        "method": "PUT",
        "url": "Condition/denom-EXM161-FHIR3-8"
      }
    },
    {
      "resource": {
        "resourceType": "Encounter",
        "id": "denom-EXM161-FHIR3-2",
        "meta": {
          "profile": [
            "http://hl7.org/fhir/us/core/StructureDefinition/us-core-encounter"
          ]
        },
        "status": "finished",
        "type": [
          {
            "coding": [
              {
                "system": "http://www.ama-assn.org/go/cpt",
                "code": "90791",
                "display": "Psychiatric diagnostic evaluation"
              }
            ]
          }
        ],
        "subject": {
          "reference": "Patient/denom-EXM161-FHIR3"
        },
        "period": {
          "start": "2019-08-21T00:00:00-06:00",
          "end": "2019-12-19T08:15:00-07:00"
        },
        "diagnosis": [
          {
            "condition": {
              "reference": "Condition/denom-EXM161-FHIR3-8"
            },
            "role": {
              "coding": [
                {
                  "system": "http://hl7.org/fhir/diagnosis-role",
                  "code": "billing",
                  "display": "Billing"
                }
              ]
            },
            "rank": 1
          }
        ]
      },
      "request": {
        "method": "PUT",
        "url": "Encounter/denom-EXM161-FHIR3-2"
      }
    },
    {
      "resource": {
        "resourceType": "MeasureReport",
        "id": "measurereport-denom-EXM161-FHIR3",
        "contained": [
          {
            "resourceType": "Bundle",
            "id": "d4b0142c-97b7-4d26-a78c-479f1e231974",
            "type": "collection",
            "entry": [
              {
                "fullUrl": "Condition/denom-EXM161-FHIR3-8/_history/1",
                "resource": {
                  "resourceType": "Condition",
                  "id": "denom-EXM161-FHIR3-8",
                  "meta": {
                    "versionId": "1",
                    "lastUpdated": "2019-12-13T15:45:31.477+00:00",
                    "profile": [
                      "http://hl7.org/fhir/us/core/StructureDefinition/us-core-condition"
                    ]
                  },
                  "verificationStatus": "confirmed",
                  "category": [
                    {
                      "coding": [
                        {
                          "system": "http://terminology.hl7.org/CodeSystem/condition-category",
                          "code": "encounter-diagnosis",
                          "display": "Encounter Diagnosis"
                        }
                      ]
                    }
                  ],
                  "code": {
                    "coding": [
                      {
                        "system": "http://hl7.org/fhir/sid/icd-10",
                        "code": "F32.0",
                        "display": "Major depressive disorder, single episode, mild"
                      }
                    ]
                  },
                  "subject": {
                    "reference": "Patient/denom-EXM161-FHIR3"
                  }
                }
              },
              {
                "fullUrl": "Patient/denom-EXM161-FHIR3/_history/1",
                "resource": {
                  "resourceType": "Patient",
                  "id": "denom-EXM161-FHIR3",
                  "meta": {
                    "versionId": "1",
                    "lastUpdated": "2019-12-13T15:45:31.477+00:00",
                    "profile": [
                      "http://hl7.org/fhir/us/core/StructureDefinition/us-core-patient"
                    ]
                  },
                  "text": {
                    "status": "generated",
                    "div": "<div xmlns=\"http://www.w3.org/1999/xhtml\"><div class=\"hapiHeaderText\">Rick <b>JONES </b></div><table class=\"hapiPropertyTable\"><tbody><tr><td>Identifier</td><td>9999999910</td></tr><tr><td>Date of birth</td><td><span>05 November 1955</span></td></tr></tbody></table></div>"
                  },
                  "extension": [
                    {
                      "url": "http://hl7.org/fhir/us/core/StructureDefinition/us-core-race",
                      "extension": [
                        {
                          "url": "ombCategory",
                          "valueCoding": {
                            "system": "urn:oid:2.16.840.1.113883.6.238",
                            "code": "2054-5",
                            "display": "Black or African American"
                          }
                        }
                      ]
                    },
                    {
                      "url": "http://hl7.org/fhir/us/core/StructureDefinition/us-core-ethnicity",
                      "extension": [
                        {
                          "url": "ombCategory",
                          "valueCoding": {
                            "system": "urn:oid:2.16.840.1.113883.6.238",
                            "code": "2135-2",
                            "display": "Hispanic or Latino"
                          }
                        }
                      ]
                    }
                  ],
                  "identifier": [
                    {
                      "use": "usual",
                      "type": {
                        "coding": [
                          {
                            "system": "http://terminology.hl7.org/CodeSystem/v2-0203",
                            "code": "MR",
                            "display": "Medical Record Number"
                          }
                        ]
                      },
                      "system": "http://hospital.smarthealthit.org",
                      "value": "9999999910"
                    }
                  ],
                  "name": [
                    {
                      "family": "Jones",
                      "given": [
                        "Rick"
                      ]
                    }
                  ],
                  "gender": "male",
                  "birthDate": "1955-11-05"
                }
              },
              {
                "fullUrl": "Encounter/denom-EXM161-FHIR3-2/_history/1",
                "resource": {
                  "resourceType": "Encounter",
                  "id": "denom-EXM161-FHIR3-2",
                  "meta": {
                    "versionId": "1",
                    "lastUpdated": "2019-12-13T15:45:31.477+00:00",
                    "profile": [
                      "http://hl7.org/fhir/us/core/StructureDefinition/us-core-encounter"
                    ]
                  },
                  "status": "finished",
                  "type": [
                    {
                      "coding": [
                        {
                          "system": "http://www.ama-assn.org/go/cpt",
                          "code": "90791",
                          "display": "Psychiatric diagnostic evaluation"
                        }
                      ]
                    }
                  ],
                  "subject": {
                    "reference": "Patient/denom-EXM161-FHIR3"
                  },
                  "period": {
                    "start": "2019-08-21T00:00:00-06:00",
                    "end": "2019-12-19T08:15:00-07:00"
                  },
                  "diagnosis": [
                    {
                      "condition": {
                        "reference": "Condition/denom-EXM161-FHIR3-8"
                      },
                      "role": {
                        "coding": [
                          {
                            "system": "http://hl7.org/fhir/diagnosis-role",
                            "code": "billing",
                            "display": "Billing"
                          }
                        ]
                      },
                      "rank": 1
                    }
                  ]
                }
              },
              {
                "fullUrl": "35893fd2-6920-4a20-879a-ac9cf04d74cc",
                "resource": {
                  "resourceType": "List",
                  "id": "35893fd2-6920-4a20-879a-ac9cf04d74cc",
                  "title": "initial-population",
                  "entry": [
                    {
                      "item": {
                        "reference": "#Condition/denom-EXM161-FHIR3-8/_history/1"
                      }
                    },
                    {
                      "item": {
                        "reference": "#Patient/denom-EXM161-FHIR3/_history/1"
                      }
                    },
                    {
                      "item": {
                        "reference": "#Encounter/denom-EXM161-FHIR3-2/_history/1"
                      }
                    }
                  ]
                }
              }
            ]
          }
        ],
        "status": "complete",
        "type": "individual",
        "measure": {
          "reference": "Measure/measure-EXM161-FHIR3-8.0.0"
        },
        "patient": {
          "reference": "Patient/denom-EXM161-FHIR3"
        },
        "period": {
          "start": "2019-01-01T00:00:00+00:00",
          "end": "2019-12-31T00:00:00+00:00"
        },
        "group": [
          {
            "identifier": {
              "value": "group-1"
            },
            "population": [
              {
                "identifier": {
                  "value": "initial-population-identifier"
                },
                "code": {
                  "coding": [
                    {
                      "system": "http://terminology.hl7.org/CodeSystem/measure-population",
                      "code": "initial-population",
                      "display": "Initial Population"
                    }
                  ]
                },
                "count": 1
              },
              {
                "identifier": {
                  "value": "numerator-identifier"
                },
                "code": {
                  "coding": [
                    {
                      "system": "http://terminology.hl7.org/CodeSystem/measure-population",
                      "code": "numerator",
                      "display": "Numerator"
                    }
                  ]
                },
                "count": 0
              },
              {
                "identifier": {
                  "value": "denominator-identifier"
                },
                "code": {
                  "coding": [
                    {
                      "system": "http://terminology.hl7.org/CodeSystem/measure-population",
                      "code": "denominator",
                      "display": "Denominator"
                    }
                  ]
                },
                "count": 1
              }
            ],
            "measureScore": 0.0
          }
        ],
        "evaluatedResources": {
          "reference": "#d4b0142c-97b7-4d26-a78c-479f1e231974"
        }
      },
      "request": {
        "method": "PUT",
        "url": "MeasureReport/measurereport-denom-EXM161-FHIR3"
      }
    },
    {
      "resource": {
        "resourceType": "Patient",
        "id": "denom-EXM161-FHIR3",
        "meta": {
          "profile": [
            "http://hl7.org/fhir/us/core/StructureDefinition/us-core-patient"
          ]
        },
        "extension": [
          {
            "url": "http://hl7.org/fhir/us/core/StructureDefinition/us-core-race",
            "extension": [
              {
                "url": "ombCategory",
                "valueCoding": {
                  "system": "urn:oid:2.16.840.1.113883.6.238",
                  "code": "2054-5",
                  "display": "Black or African American"
                }
              }
            ]
          },
          {
            "url": "http://hl7.org/fhir/us/core/StructureDefinition/us-core-ethnicity",
            "extension": [
              {
                "url": "ombCategory",
                "valueCoding": {
                  "system": "urn:oid:2.16.840.1.113883.6.238",
                  "code": "2135-2",
                  "display": "Hispanic or Latino"
                }
              }
            ]
          }
        ],
        "identifier": [
          {
            "use": "usual",
            "type": {
              "coding": [
                {
                  "system": "http://terminology.hl7.org/CodeSystem/v2-0203",
                  "code": "MR",
                  "display": "Medical Record Number"
                }
              ]
            },
            "system": "http://hospital.smarthealthit.org",
            "value": "9999999910"
          }
        ],
        "name": [
          {
            "family": "Jones",
            "given": [
              "Rick"
            ]
          }
        ],
        "gender": "male",
        "birthDate": "1955-11-05"
      },
      "request": {
        "method": "PUT",
        "url": "Patient/denom-EXM161-FHIR3"
      }
    }
  ]
}