{
  "resourceType": "Bundle",
  "id": "tests-denom-EXM349-FHIR3-bundle",
  "type": "transaction",
  "entry": [
    {
      "resource": {
        "resourceType": "Encounter",
        "id": "denom-EXM349-FHIR3-2",
        "meta": {
          "profile": [
            "http://hl7.org/fhir/us/core/StructureDefinition/us-core-encounter"
          ]
        },
        "status": "finished",
        "type": [
          {
            "coding": [
              {
                "system": "http://www.ama-assn.org/go/cpt",
                "code": "99386",
                "display": "Initial comprehensive preventive medicine evaluation and management of an individual including an age and gender appropriate history, examination, counseling/anticipatory guidance/risk factor reduction interventions, and the ordering of laboratory/diagnostic procedures, new patient; 40-64 years"
              }
            ]
          }
        ],
        "subject": {
          "reference": "Patient/denom-EXM349-FHIR3"
        },
        "period": {
          "start": "2019-08-21T00:00:00-06:00",
          "end": "2019-12-19T08:15:00-07:00"
        }
      },
      "request": {
        "method": "PUT",
        "url": "Encounter/denom-EXM349-FHIR3-2"
      }
    },
    {
      "resource": {
        "resourceType": "MeasureReport",
        "id": "measurereport-denom-EXM349-FHIR3",
        "contained": [
          {
            "resourceType": "Bundle",
            "id": "311090c6-2940-4da7-8d85-275c97489cd1",
            "type": "collection",
            "entry": [
              {
                "fullUrl": "Patient/denom-EXM349-FHIR3/_history/1",
                "resource": {
                  "resourceType": "Patient",
                  "id": "denom-EXM349-FHIR3",
                  "meta": {
                    "versionId": "1",
                    "lastUpdated": "2019-12-13T15:45:49.566+00:00",
                    "profile": [
                      "http://hl7.org/fhir/us/core/StructureDefinition/us-core-patient"
                    ]
                  },
                  "text": {
                    "status": "generated",
                    "div": "<div xmlns=\"http://www.w3.org/1999/xhtml\"><div class=\"hapiHeaderText\">Rick <b>JONES </b></div><table class=\"hapiPropertyTable\"><tbody><tr><td>Identifier</td><td>9999999910</td></tr><tr><td>Date of birth</td><td><span>05 November 1955</span></td></tr></tbody></table></div>"
                  },
                  "extension": [
                    {
                      "url": "http://hl7.org/fhir/us/core/StructureDefinition/us-core-race",
                      "extension": [
                        {
                          "url": "ombCategory",
                          "valueCoding": {
                            "system": "urn:oid:2.16.840.1.113883.6.238",
                            "code": "2054-5",
                            "display": "Black or African American"
                          }
                        }
                      ]
                    },
                    {
                      "url": "http://hl7.org/fhir/us/core/StructureDefinition/us-core-ethnicity",
                      "extension": [
                        {
                          "url": "ombCategory",
                          "valueCoding": {
                            "system": "urn:oid:2.16.840.1.113883.6.238",
                            "code": "2135-2",
                            "display": "Hispanic or Latino"
                          }
                        }
                      ]
                    }
                  ],
                  "identifier": [
                    {
                      "use": "usual",
                      "type": {
                        "coding": [
                          {
                            "system": "http://terminology.hl7.org/CodeSystem/v2-0203",
                            "code": "MR",
                            "display": "Medical Record Number"
                          }
                        ]
                      },
                      "system": "http://hospital.smarthealthit.org",
                      "value": "9999999910"
                    }
                  ],
                  "name": [
                    {
                      "family": "Jones",
                      "given": [
                        "Rick"
                      ]
                    }
                  ],
                  "gender": "male",
                  "birthDate": "1955-11-05"
                }
              },
              {
                "fullUrl": "78b6ecdd-9dce-467e-a5f8-db20e600c1d8",
                "resource": {
                  "resourceType": "List",
                  "id": "78b6ecdd-9dce-467e-a5f8-db20e600c1d8",
                  "title": "initial-population",
                  "entry": [
                    {
                      "item": {
                        "reference": "#Patient/denom-EXM349-FHIR3/_history/1"
                      }
                    },
                    {
                      "item": {
                        "reference": "#Encounter/denom-EXM349-FHIR3-2/_history/1"
                      }
                    }
                  ]
                }
              },
              {
                "fullUrl": "Encounter/denom-EXM349-FHIR3-2/_history/1",
                "resource": {
                  "resourceType": "Encounter",
                  "id": "denom-EXM349-FHIR3-2",
                  "meta": {
                    "versionId": "1",
                    "lastUpdated": "2019-12-13T15:45:49.566+00:00",
                    "profile": [
                      "http://hl7.org/fhir/us/core/StructureDefinition/us-core-encounter"
                    ]
                  },
                  "status": "finished",
                  "type": [
                    {
                      "coding": [
                        {
                          "system": "http://www.ama-assn.org/go/cpt",
                          "code": "99386",
                          "display": "Initial comprehensive preventive medicine evaluation and management of an individual including an age and gender appropriate history, examination, counseling/anticipatory guidance/risk factor reduction interventions, and the ordering of laboratory/diagnostic procedures, new patient; 40-64 years"
                        }
                      ]
                    }
                  ],
                  "subject": {
                    "reference": "Patient/denom-EXM349-FHIR3"
                  },
                  "period": {
                    "start": "2019-08-21T00:00:00-06:00",
                    "end": "2019-12-19T08:15:00-07:00"
                  }
                }
              }
            ]
          }
        ],
        "status": "complete",
        "type": "individual",
        "measure": {
          "reference": "Measure/measure-EXM349-FHIR3-2.9.000"
        },
        "patient": {
          "reference": "Patient/denom-EXM349-FHIR3"
        },
        "period": {
          "start": "2019-01-01T00:00:00+00:00",
          "end": "2019-12-31T00:00:00+00:00"
        },
        "group": [
          {
            "identifier": {
              "value": "group-1"
            },
            "population": [
              {
                "identifier": {
                  "value": "initial-population-identifier"
                },
                "code": {
                  "coding": [
                    {
                      "system": "http://terminology.hl7.org/CodeSystem/measure-population",
                      "code": "initial-population",
                      "display": "Initial Population"
                    }
                  ]
                },
                "count": 1
              },
              {
                "identifier": {
                  "value": "numerator-identifier"
                },
                "code": {
                  "coding": [
                    {
                      "system": "http://terminology.hl7.org/CodeSystem/measure-population",
                      "code": "numerator",
                      "display": "Numerator"
                    }
                  ]
                },
                "count": 0
              },
              {
                "identifier": {
                  "value": "denominator-identifier"
                },
                "code": {
                  "coding": [
                    {
                      "system": "http://terminology.hl7.org/CodeSystem/measure-population",
                      "code": "denominator",
                      "display": "Denominator"
                    }
                  ]
                },
                "count": 1
              },
              {
                "identifier": {
                  "value": "denominator-exclusions-identifier"
                },
                "code": {
                  "coding": [
                    {
                      "system": "http://terminology.hl7.org/CodeSystem/measure-population",
                      "code": "denominator-exclusion",
                      "display": "Denominator Exclusion"
                    }
                  ]
                },
                "count": 0
              }
            ],
            "measureScore": 0.0
          }
        ],
        "evaluatedResources": {
          "reference": "#311090c6-2940-4da7-8d85-275c97489cd1"
        }
      },
      "request": {
        "method": "PUT",
        "url": "MeasureReport/measurereport-denom-EXM349-FHIR3"
      }
    },
    {
      "resource": {
        "resourceType": "Patient",
        "id": "denom-EXM349-FHIR3",
        "meta": {
          "profile": [
            "http://hl7.org/fhir/us/core/StructureDefinition/us-core-patient"
          ]
        },
        "extension": [
          {
            "url": "http://hl7.org/fhir/us/core/StructureDefinition/us-core-race",
            "extension": [
              {
                "url": "ombCategory",
                "valueCoding": {
                  "system": "urn:oid:2.16.840.1.113883.6.238",
                  "code": "2054-5",
                  "display": "Black or African American"
                }
              }
            ]
          },
          {
            "url": "http://hl7.org/fhir/us/core/StructureDefinition/us-core-ethnicity",
            "extension": [
              {
                "url": "ombCategory",
                "valueCoding": {
                  "system": "urn:oid:2.16.840.1.113883.6.238",
                  "code": "2135-2",
                  "display": "Hispanic or Latino"
                }
              }
            ]
          }
        ],
        "identifier": [
          {
            "use": "usual",
            "type": {
              "coding": [
                {
                  "system": "http://terminology.hl7.org/CodeSystem/v2-0203",
                  "code": "MR",
                  "display": "Medical Record Number"
                }
              ]
            },
            "system": "http://hospital.smarthealthit.org",
            "value": "9999999910"
          }
        ],
        "name": [
          {
            "family": "Jones",
            "given": [
              "Rick"
            ]
          }
        ],
        "gender": "male",
        "birthDate": "1955-11-05"
      },
      "request": {
        "method": "PUT",
        "url": "Patient/denom-EXM349-FHIR3"
      }
    }
  ]
}