{
  "resourceType": "MeasureReport",
  "contained": [
    {
      "resourceType": "Bundle",
      "id": "775f58bd-1a19-42dd-b4a6-323ae266e5eb",
      "type": "collection",
      "entry": [
        {
          "fullUrl": "MedicationRequest/numer-cms104-stu3-5/_history/1",
          "resource": {
            "resourceType": "MedicationRequest",
            "id": "numer-cms104-stu3-5",
            "meta": {
              "versionId": "1",
              "lastUpdated": "2019-11-13T00:17:57.125+00:00"
            },
            "status": "completed",
            "intent": "order",
            "category": {
              "coding": [
                {
                  "system": "http://terminology.hl7.org/CodeSystem/medicationrequest-category",
                  "code": "discharge",
                  "display": "Discharge"
                }
              ]
            },
            "medicationCodeableConcept": {
              "coding": [
                {
                  "system": "http://www.nlm.nih.gov/research/umls/rxnorm",
                  "code": "1037045",
                  "display": "dabigatran etexilate 150 MG Oral Capsule"
                }
              ]
            },
            "subject": {
              "reference": "Patient/numer-cms104-stu3"
            },
            "authoredOn": "2019-12-19T08:00:00-07:00"
          }
        },
        {
          "fullUrl": "ff3effc1-3211-4c55-8470-edba80c23636",
          "resource": {
            "resourceType": "List",
            "id": "ff3effc1-3211-4c55-8470-edba80c23636",
            "title": "denominator",
            "entry": [
              {
                "item": {
                  "reference": "#Condition/numer-cms104-stu3-1/_history/1"
                }
              }
            ]
          }
        },
        {
          "fullUrl": "f7761a2f-e185-417b-8f6c-a3a8b3b498db",
          "resource": {
            "resourceType": "List",
            "id": "f7761a2f-e185-417b-8f6c-a3a8b3b498db",
            "title": "initial-population",
            "entry": [
              {
                "item": {
                  "reference": "#Patient/numer-cms104-stu3/_history/2"
                }
              },
              {
                "item": {
                  "reference": "#Encounter/numer-cms104-stu3-2/_history/3"
                }
              },
              {
                "item": {
                  "reference": "#Condition/numer-cms104-stu3-1/_history/1"
                }
              }
            ]
          }
        },
        {
          "fullUrl": "Patient/numer-cms104-stu3/_history/2",
          "resource": {
            "resourceType": "Patient",
            "id": "numer-cms104-stu3",
            "meta": {
              "versionId": "2",
              "lastUpdated": "2019-11-23T06:34:49.260+00:00",
              "profile": [
                "http://hl7.org/fhir/us/core/StructureDefinition/us-core-patient"
              ]
            },
            "text": {
              "status": "generated",
              "div": "<div xmlns=\"http://www.w3.org/1999/xhtml\"><div class=\"hapiHeaderText\">Louise <b>JONES </b></div><table class=\"hapiPropertyTable\"><tbody><tr><td>Identifier</td><td>9999999911</td></tr><tr><td>Date of birth</td><td><span>21 November 1971</span></td></tr></tbody></table></div>"
            },
            "extension": [
              {
                "url": "http://hl7.org/fhir/us/core/StructureDefinition/us-core-race",
                "extension": [
                  {
                    "url": "ombCategory",
                    "valueCoding": {
                      "system": "urn:oid:2.16.840.1.113883.6.238",
                      "code": "2106-3",
                      "display": "White"
                    }
                  }
                ]
              },
              {
                "url": "http://hl7.org/fhir/us/core/StructureDefinition/us-core-ethnicity",
                "extension": [
                  {
                    "url": "ombCategory",
                    "valueCoding": {
                      "system": "urn:oid:2.16.840.1.113883.6.238",
                      "code": "2186-5",
                      "display": "Not Hispanic or Latino"
                    }
                  }
                ]
              }
            ],
            "identifier": [
              {
                "use": "usual",
                "type": {
                  "coding": [
                    {
                      "system": "http://terminology.hl7.org/CodeSystem/v2-0203",
                      "code": "MR",
                      "display": "Medical Record Number"
                    }
                  ]
                },
                "system": "http://hospital.smarthealthit.org",
                "value": "9999999911"
              }
            ],
            "name": [
              {
                "family": "Jones",
                "given": [
                  "Louise"
                ]
              }
            ],
            "gender": "female",
            "birthDate": "1971-11-21"
          }
        },
        {
          "fullUrl": "Encounter/numer-cms104-stu3-2/_history/3",
          "resource": {
            "resourceType": "Encounter",
            "id": "numer-cms104-stu3-2",
            "meta": {
              "versionId": "3",
              "lastUpdated": "2019-11-23T06:34:49.158+00:00",
              "profile": [
                "http://hl7.org/fhir/us/core/StructureDefinition/us-core-encounter"
              ]
            },
            "status": "finished",
            "class": {
              "system": "http://terminology.hl7.org/CodeSystem/v3-ActCode",
              "code": "IMP",
              "display": "inpatient encounter"
            },
            "type": [
              {
                "coding": [
                  {
                    "system": "http://snomed.info/sct",
                    "code": "32485007",
                    "display": "Hospital admission (procedure)"
                  }
                ]
              }
            ],
            "subject": {
              "reference": "Patient/numer-cms104-stu3"
            },
            "period": {
              "start": "2019-08-21T00:00:00-06:00",
              "end": "2019-12-19T08:15:00-07:00"
            },
            "diagnosis": [
              {
                "condition": {
                  "reference": "Condition/numer-cms104-stu3-1"
                },
                "role": {
                  "coding": [
                    {
                      "system": "http://hl7.org/fhir/diagnosis-role",
                      "code": "billing",
                      "display": "Billing"
                    }
                  ]
                },
                "rank": 1
              }
            ]
          }
        },
        {
          "fullUrl": "Condition/numer-cms104-stu3-1/_history/1",
          "resource": {
            "resourceType": "Condition",
            "id": "numer-cms104-stu3-1",
            "meta": {
              "versionId": "1",
              "lastUpdated": "2019-11-13T00:18:46.516+00:00",
              "profile": [
                "http://hl7.org/fhir/us/core/StructureDefinition/us-core-condition"
              ]
            },
            "verificationStatus": "confirmed",
            "category": [
              {
                "coding": [
                  {
                    "system": "http://terminology.hl7.org/CodeSystem/condition-category",
                    "code": "encounter-diagnosis",
                    "display": "Encounter Diagnosis"
                  }
                ]
              }
            ],
            "code": {
              "coding": [
                {
                  "system": "http://snomed.info/sct",
                  "code": "116288000",
                  "display": "Paralytic stroke (disorder)"
                }
              ]
            },
            "subject": {
              "reference": "Patient/numer-cms104-stu3"
            }
          }
        },
        {
          "fullUrl": "fd0b2e4d-0a44-489a-8fed-56b3f1dc2555",
          "resource": {
            "resourceType": "List",
            "id": "fd0b2e4d-0a44-489a-8fed-56b3f1dc2555",
            "title": "numerator",
            "entry": [
              {
                "item": {
                  "reference": "#MedicationRequest/numer-cms104-stu3-5/_history/1"
                }
              }
            ]
          }
        }
      ]
    }
  ],
  "status": "complete",
  "type": "individual",
  "measure": {
    "reference": "Measure/measure-exm104-FHIR3"
  },
  "patient": {
    "reference": "Patient/numer-cms104-stu3"
  },
  "period": {
    "start": "2019-01-01T00:00:00+00:00",
    "end": "2019-12-31T00:00:00+00:00"
  },
  "group": [
    {
      "identifier": {
        "value": "group-1"
      },
      "population": [
        {
          "identifier": {
            "value": "initial-population-identifier"
          },
          "code": {
            "coding": [
              {
                "system": "http://terminology.hl7.org/CodeSystem/measure-population",
                "code": "initial-population",
                "display": "Initial Population"
              }
            ]
          },
          "count": 1
        },
        {
          "identifier": {
            "value": "numerator-identifier"
          },
          "code": {
            "coding": [
              {
                "system": "http://terminology.hl7.org/CodeSystem/measure-population",
                "code": "numerator",
                "display": "Numerator"
              }
            ]
          },
          "count": 1
        },
        {
          "identifier": {
            "value": "denominator-identifier"
          },
          "code": {
            "coding": [
              {
                "system": "http://terminology.hl7.org/CodeSystem/measure-population",
                "code": "denominator",
                "display": "Denominator"
              }
            ]
          },
          "count": 1
        },
        {
          "identifier": {
            "value": "denominator-exclusions-identifier"
          },
          "code": {
            "coding": [
              {
                "system": "http://terminology.hl7.org/CodeSystem/measure-population",
                "code": "denominator-exclusion",
                "display": "Denominator Exclusion"
              }
            ]
          },
          "count": 0
        }
      ],
      "measureScore": 1.0
    }
  ],
  "evaluatedResources": {
    "reference": "#775f58bd-1a19-42dd-b4a6-323ae266e5eb"
  }
}