{
  "resourceType": "Bundle",
  "id": "EXM130-FHIR3-7.2.000-bundle",
  "type": "transaction",
  "entry": [
    {
      "resource": {
        "resourceType": "Library",
        "id": "library-AdultOutpatientEncounters-FHIR3-1.1.000",
        "text": {
          "status": "generated",
          "div": "<div xmlns=\"http://www.w3.org/1999/xhtml\"><table class=\"grid dict\"><tr><th scope=\"row\"><b>Id: </b></th><td style=\"padding-left: 25px; padding-right: 25px;\">library-AdultOutpatientEncounters-FHIR3-1.1.000</td></tr><tr><th scope=\"row\"><b>Type: </b></th><td style=\"padding-right: 25px;\"><span><br/><span><span style=\"padding-left: 25px;\"><b>system: </b><span>http://hl7.org/fhir/codesystem-library-type.html</span><br/></span><span style=\"padding-left: 25px;\"><b>code: </b><span>logic-library</span></span></span></span></td></tr><tr><th scope=\"row\"><b>Version: </b></th><td style=\"padding-left: 25px; padding-right: 25px;\">1.1.000</td></tr><tr><th scope=\"row\"><b>Status: </b></th><td style=\"padding-left: 25px; padding-right: 25px;\">active</td></tr><tr style=\"vertical-align: top;\"><th rowspan=\"1\" scope=\"row\"><b>Related: </b></th><td style=\"padding-left: 25px; padding-right: 25px;\"><p style=\"margin-bottom: 5px;\"><b>type: </b><span>depends-on</span></p><p style=\"margin-bottom: 5px;\"><b>Resource: </b><br/><span><span style=\"padding-left: 25px;\"><b>reference: </b><span>Library/library-FHIRHelpers-3.0.0</span></span></span></p></td></tr><tr style=\"vertical-align: top;\"><th rowspan=\"5\" scope=\"row\"><b>Data Requirements: </b></th><td style=\"padding-left: 25px; padding-right: 25px;\"><div xmlns=\"http://www.w3.org/1999/xhtml\"><p style=\"margin-bottom: 5px;\"><b>type: </b><span>Encounter</span></p><p style=\"margin-bottom: 5px;\"><b>code filter:</b><br/><span style=\"padding-left: 25px;\"><b>path: </b><span>type</span></span><br/><span style=\"padding-left: 25px;\"><b>valueset: </b><span>http://cts.nlm.nih.gov/fhir/ValueSet/2.16.840.1.113883.3.464.1003.101.12.1001</span></span></p></div></td></tr><tr style=\"vertical-align: top;\"><td style=\"padding-left: 25px; padding-right: 25px;\"><div xmlns=\"http://www.w3.org/1999/xhtml\"><p style=\"margin-bottom: 5px;\"><b>type: </b><span>Encounter</span></p><p style=\"margin-bottom: 5px;\"><b>code filter:</b><br/><span style=\"padding-left: 25px;\"><b>path: </b><span>type</span></span><br/><span style=\"padding-left: 25px;\"><b>valueset: </b><span>http://cts.nlm.nih.gov/fhir/ValueSet/2.16.840.1.113883.3.526.3.1240</span></span></p></div></td></tr><tr style=\"vertical-align: top;\"><td style=\"padding-left: 25px; padding-right: 25px;\"><div xmlns=\"http://www.w3.org/1999/xhtml\"><p style=\"margin-bottom: 5px;\"><b>type: </b><span>Encounter</span></p><p style=\"margin-bottom: 5px;\"><b>code filter:</b><br/><span style=\"padding-left: 25px;\"><b>path: </b><span>type</span></span><br/><span style=\"padding-left: 25px;\"><b>valueset: </b><span>http://cts.nlm.nih.gov/fhir/ValueSet/2.16.840.1.113883.3.464.1003.101.12.1025</span></span></p></div></td></tr><tr style=\"vertical-align: top;\"><td style=\"padding-left: 25px; padding-right: 25px;\"><div xmlns=\"http://www.w3.org/1999/xhtml\"><p style=\"margin-bottom: 5px;\"><b>type: </b><span>Encounter</span></p><p style=\"margin-bottom: 5px;\"><b>code filter:</b><br/><span style=\"padding-left: 25px;\"><b>path: </b><span>type</span></span><br/><span style=\"padding-left: 25px;\"><b>valueset: </b><span>http://cts.nlm.nih.gov/fhir/ValueSet/2.16.840.1.113883.3.464.1003.101.12.1023</span></span></p></div></td></tr><tr style=\"vertical-align: top;\"><td style=\"padding-left: 25px; padding-right: 25px;\"><div xmlns=\"http://www.w3.org/1999/xhtml\"><p style=\"margin-bottom: 5px;\"><b>type: </b><span>Encounter</span></p><p style=\"margin-bottom: 5px;\"><b>code filter:</b><br/><span style=\"padding-left: 25px;\"><b>path: </b><span>type</span></span><br/><span style=\"padding-left: 25px;\"><b>valueset: </b><span>http://cts.nlm.nih.gov/fhir/ValueSet/2.16.840.1.113883.3.464.1003.101.12.1016</span></span></p></div></td></tr>    <!-- Filter down to human readable content --><tr style=\"vertical-align: top;\"><th scope=\"row\"><b>Content: </b></th><td style=\"padding-left: 25px; padding-right: 25px;\"><b>type: </b><span>text/cql</span></td></tr><tr><td colspan=\"2\" style=\"padding-left: 25px; padding-right: 25px;\"><pre><code class=\"language-cql\">library AdultOutpatientEncounters_FHIR3 version '1.1.000'\n\n/*\nThis example is a work in progress and should not be considered a final specification\nor recommendation for guidance. This example will help guide and direct the process\nof finding conventions and usage patterns that meet the needs of the various stakeholders\nin the measure development community.\n*/\n\nusing FHIR version '3.0.0'\n\ninclude FHIRHelpers version '3.0.0' called FHIRHelpers\n\nvalueset \"Office Visit\": 'http://cts.nlm.nih.gov/fhir/ValueSet/2.16.840.1.113883.3.464.1003.101.12.1001'\nvalueset \"Annual Wellness Visit\": 'http://cts.nlm.nih.gov/fhir/ValueSet/2.16.840.1.113883.3.526.3.1240'\nvalueset \"Preventive Care Services - Established Office Visit, 18 and Up\": 'http://cts.nlm.nih.gov/fhir/ValueSet/2.16.840.1.113883.3.464.1003.101.12.1025'\nvalueset \"Preventive Care Services-Initial Office Visit, 18 and Up\": 'http://cts.nlm.nih.gov/fhir/ValueSet/2.16.840.1.113883.3.464.1003.101.12.1023'\nvalueset \"Home Healthcare Services\": 'http://cts.nlm.nih.gov/fhir/ValueSet/2.16.840.1.113883.3.464.1003.101.12.1016'\n\ncontext Patient\n\ndefine function \"Qualifying Encounters\"(MeasurementPeriod Interval&lt;DateTime&gt;):\n\t(\n\t    [Encounter: \"Office Visit\"]\n\t\tunion [Encounter: \"Annual Wellness Visit\"] \n\t\tunion [Encounter: \"Preventive Care Services - Established Office Visit, 18 and Up\"] \n\t\tunion [Encounter: \"Preventive Care Services-Initial Office Visit, 18 and Up\"] \n\t\tunion [Encounter: \"Home Healthcare Services\"]\n    ) ValidEncounter\n\t\twhere ValidEncounter.period during day of MeasurementPeriod\n\t\tand ValidEncounter.status  = 'finished' \n</code></pre>\r\n                    \r\n                    \r\n                </td>\r\n            </tr>\r\n        \r\n    </table>\r\n</div>"
        },
        "version": "1.1.000",
        "name": "AdultOutpatientEncounters_FHIR3",
        "status": "active",
        "experimental": true,
        "type": {
          "coding": [
            {
              "system": "http://hl7.org/fhir/codesystem-library-type.html",
              "code": "logic-library"
            }
          ]
        },
        "relatedArtifact": [
          {
            "type": "depends-on",
            "resource": {
              "reference": "Library/library-FHIRHelpers-3.0.0"
            }
          }
        ],
        "dataRequirement": [
          {
            "type": "Encounter",
            "codeFilter": [
              {
                "path": "type",
                "valueSetString": "http://cts.nlm.nih.gov/fhir/ValueSet/2.16.840.1.113883.3.464.1003.101.12.1001"
              }
            ]
          },
          {
            "type": "Encounter",
            "codeFilter": [
              {
                "path": "type",
                "valueSetString": "http://cts.nlm.nih.gov/fhir/ValueSet/2.16.840.1.113883.3.526.3.1240"
              }
            ]
          },
          {
            "type": "Encounter",
            "codeFilter": [
              {
                "path": "type",
                "valueSetString": "http://cts.nlm.nih.gov/fhir/ValueSet/2.16.840.1.113883.3.464.1003.101.12.1025"
              }
            ]
          },
          {
            "type": "Encounter",
            "codeFilter": [
              {
                "path": "type",
                "valueSetString": "http://cts.nlm.nih.gov/fhir/ValueSet/2.16.840.1.113883.3.464.1003.101.12.1023"
              }
            ]
          },
          {
            "type": "Encounter",
            "codeFilter": [
              {
                "path": "type",
                "valueSetString": "http://cts.nlm.nih.gov/fhir/ValueSet/2.16.840.1.113883.3.464.1003.101.12.1016"
              }
            ]
          }
        ],
        "content": [
          {
            "contentType": "application/elm+xml",
            "data": ""
          },
          {
            "contentType": "text/cql",
            "data": ""
          }
        ]
      },
      "request": {
        "method": "PUT",
        "url": "Library/library-AdultOutpatientEncounters-FHIR3-1.1.000"
      }
    },
    {
      "resource": {
        "resourceType": "ValueSet",
        "id": "2.16.840.1.114222.4.11.836",
        "url": "http://cts.nlm.nih.gov/fhir/ValueSet/2.16.840.1.114222.4.11.836",
        "identifier": [
          {
            "system": "urn:ietf:rfc:3986",
            "value": "2.16.840.1.114222.4.11.836"
          }
        ],
        "version": "20121025",
        "name": "Race",
        "title": "Race",
        "status": "active",
        "publisher": "NLM",
        "compose": {
          "include": [
            {
              "system": "http://www.cdc.gov/phin/resources/vocabulary/index.html",
              "version": "1.2",
              "concept": [
                {
                  "code": "1002-5",
                  "display": "American Indian or Alaska Native"
                },
                {
                  "code": "2028-9",
                  "display": "Asian"
                },
                {
                  "code": "2054-5",
                  "display": "Black or African American"
                },
                {
                  "code": "2076-8",
                  "display": "Native Hawaiian or Other Pacific Islander"
                },
                {
                  "code": "2106-3",
                  "display": "White"
                },
                {
                  "code": "2131-1",
                  "display": "Other Race"
                }
              ]
            }
          ]
        }
      },
      "request": {
        "method": "PUT",
        "url": "ValueSet/2.16.840.1.114222.4.11.836"
      }
    },
    {
      "resource": {
        "resourceType": "ValueSet",
        "id": "2.16.840.1.114222.4.11.837",
        "url": "http://cts.nlm.nih.gov/fhir/ValueSet/2.16.840.1.114222.4.11.837",
        "identifier": [
          {
            "system": "urn:ietf:rfc:3986",
            "value": "2.16.840.1.114222.4.11.837"
          }
        ],
        "version": "20121025",
        "name": "Ethnicity",
        "title": "Ethnicity",
        "status": "active",
        "publisher": "NLM",
        "compose": {
          "include": [
            {
              "system": "http://www.cdc.gov/phin/resources/vocabulary/index.html",
              "version": "1.2",
              "concept": [
                {
                  "code": "2135-2",
                  "display": "Hispanic or Latino"
                },
                {
                  "code": "2186-5",
                  "display": "Not Hispanic or Latino"
                }
              ]
            }
          ]
        }
      },
      "request": {
        "method": "PUT",
        "url": "ValueSet/2.16.840.1.114222.4.11.837"
      }
    },
    {
      "resource": {
        "resourceType": "Library",
        "id": "library-MATGlobalCommonFunctions-FHIR3-2.0.000",
        "text": {
          "status": "generated",
          "div": "<div xmlns=\"http://www.w3.org/1999/xhtml\"><table class=\"grid dict\"><tr><th scope=\"row\"><b>Id: </b></th><td style=\"padding-left: 25px; padding-right: 25px;\">library-MATGlobalCommonFunctions-FHIR3-2.0.000</td></tr><tr><th scope=\"row\"><b>Type: </b></th><td style=\"padding-right: 25px;\"><span><br/><span><span style=\"padding-left: 25px;\"><b>system: </b><span>http://hl7.org/fhir/codesystem-library-type.html</span><br/></span><span style=\"padding-left: 25px;\"><b>code: </b><span>logic-library</span></span></span></span></td></tr><tr><th scope=\"row\"><b>Version: </b></th><td style=\"padding-left: 25px; padding-right: 25px;\">2.0.000</td></tr><tr><th scope=\"row\"><b>Status: </b></th><td style=\"padding-left: 25px; padding-right: 25px;\">active</td></tr><tr style=\"vertical-align: top;\"><th rowspan=\"1\" scope=\"row\"><b>Related: </b></th><td style=\"padding-left: 25px; padding-right: 25px;\"><p style=\"margin-bottom: 5px;\"><b>type: </b><span>depends-on</span></p><p style=\"margin-bottom: 5px;\"><b>Resource: </b><br/><span><span style=\"padding-left: 25px;\"><b>reference: </b><span>Library/library-FHIRHelpers-3.0.0</span></span></span></p></td></tr><tr style=\"vertical-align: top;\"><th rowspan=\"5\" scope=\"row\"><b>Data Requirements: </b></th><td style=\"padding-left: 25px; padding-right: 25px;\"><div xmlns=\"http://www.w3.org/1999/xhtml\"><p style=\"margin-bottom: 5px;\"><b>type: </b><span>Encounter</span></p><p style=\"margin-bottom: 5px;\"><b>code filter:</b><br/><span style=\"padding-left: 25px;\"><b>path: </b><span>type</span></span><br/><span style=\"padding-left: 25px;\"><b>valueset: </b><span>http://cts.nlm.nih.gov/fhir/ValueSet/2.16.840.1.113883.3.666.5.307</span></span></p></div></td></tr><tr style=\"vertical-align: top;\"><td style=\"padding-left: 25px; padding-right: 25px;\"><div xmlns=\"http://www.w3.org/1999/xhtml\"><p style=\"margin-bottom: 5px;\"><b>type: </b><span>Encounter</span></p><p style=\"margin-bottom: 5px;\"><b>code filter:</b><br/><span style=\"padding-left: 25px;\"><b>path: </b><span>type</span></span><br/><span style=\"padding-left: 25px;\"><b>valueset: </b><span>http://cts.nlm.nih.gov/fhir/ValueSet/2.16.840.1.113883.3.117.1.7.1.292</span></span></p></div></td></tr><tr style=\"vertical-align: top;\"><td style=\"padding-left: 25px; padding-right: 25px;\"><div xmlns=\"http://www.w3.org/1999/xhtml\"><p style=\"margin-bottom: 5px;\"><b>type: </b><span>Condition</span></p></div></td></tr><tr style=\"vertical-align: top;\"><td style=\"padding-left: 25px; padding-right: 25px;\"><div xmlns=\"http://www.w3.org/1999/xhtml\"><p style=\"margin-bottom: 5px;\"><b>type: </b><span>Condition</span></p></div></td></tr><tr style=\"vertical-align: top;\"><td style=\"padding-left: 25px; padding-right: 25px;\"><div xmlns=\"http://www.w3.org/1999/xhtml\"><p style=\"margin-bottom: 5px;\"><b>type: </b><span>Location</span></p></div></td></tr>    <!-- Filter down to human readable content --><tr style=\"vertical-align: top;\"><th scope=\"row\"><b>Content: </b></th><td style=\"padding-left: 25px; padding-right: 25px;\"><b>type: </b><span>text/cql</span></td></tr><tr><td colspan=\"2\" style=\"padding-left: 25px; padding-right: 25px;\"><pre><code class=\"language-cql\">library MATGlobalCommonFunctions_FHIR3 version '2.0.000'\n\nusing FHIR version '3.0.0'\n\ninclude FHIRHelpers version '3.0.0' called FHIRHelpers\n\ncodesystem \"LOINC\": 'http://loinc.org'\ncodesystem \"SNOMEDCT\": 'http://snomed.info/sct/731000124108'\ncodesystem \"RoleCode\": 'http://hl7.org/fhir/v3/RoleCode'\ncodesystem \"Diagnosis Role\": 'http://hl7.org/fhir/diagnosis-role'\n\nvalueset \"Encounter Inpatient\": 'http://cts.nlm.nih.gov/fhir/ValueSet/2.16.840.1.113883.3.666.5.307'\nvalueset \"Emergency Department Visit\": 'http://cts.nlm.nih.gov/fhir/ValueSet/2.16.840.1.113883.3.117.1.7.1.292'\n\ncode \"Birthdate\": '21112-8' from \"LOINC\" display 'Birth date'\ncode \"Dead\": '419099009' from \"SNOMEDCT\" display 'Dead'\ncode \"ER\": 'ER' from \"RoleCode\" display 'Emergency room'\ncode \"ICU\": 'ICU' from \"RoleCode\" display 'Intensive care unit'\ncode \"Billing\": 'billing' from \"Diagnosis Role\" display 'Billing'\n\nparameter \"Measurement Period\" Interval&lt;DateTime&gt;\n\ncontext Patient\n\ndefine \"Inpatient Encounter\":\n\t[Encounter: \"Encounter Inpatient\"] EncounterInpatient\n\t\twhere EncounterInpatient.status = 'finished'\n\t\t    and \"LengthInDays\"(EncounterInpatient.period) &lt;= 120\n\t\t\tand EncounterInpatient.period ends during \"Measurement Period\"\n\ndefine function \"ToDate\"(Value DateTime):\n\tDateTime(year from Value, month from Value, day from Value, 0, 0, 0, 0, timezone from Value)\n\ndefine function \"CalendarAgeInDaysAt\"(BirthDateTime DateTime, AsOf DateTime):\n\tdays between ToDate(BirthDateTime)and ToDate(AsOf)\n\ndefine function \"CalendarAgeInDays\"(BirthDateTime DateTime):\n\tCalendarAgeInDaysAt(BirthDateTime, Today())\n\ndefine function \"CalendarAgeInMonthsAt\"(BirthDateTime DateTime, AsOf DateTime):\n\tmonths between ToDate(BirthDateTime)and ToDate(AsOf)\n\ndefine function \"CalendarAgeInMonths\"(BirthDateTime DateTime):\n\tCalendarAgeInMonthsAt(BirthDateTime, Today())\n\ndefine function \"CalendarAgeInYearsAt\"(BirthDateTime DateTime, AsOf DateTime):\n\tyears between ToDate(BirthDateTime)and ToDate(AsOf)\n\ndefine function \"CalendarAgeInYears\"(BirthDateTime DateTime):\n\tCalendarAgeInYearsAt(BirthDateTime, Today())\n\ndefine function \"LengthInDays\"(Value Interval&lt;DateTime&gt;):\n\tdifference in days between start of Value and end of Value\n\ndefine function \"ED Visit\"(TheEncounter FHIR.Encounter):\n    singleton from (\n        [Encounter: \"Emergency Department Visit\"] EDVisit\n            where EDVisit.status = 'finished'\n                and EDVisit.period ends 1 hour or less on or before start of FHIRHelpers.ToInterval(TheEncounter.period)\n    )\n\ndefine function \"Hospitalization\"(TheEncounter FHIR.Encounter):\n\t( \"ED Visit\"(TheEncounter) ) X\n    return\n        if X is null then TheEncounter.period\n        else Interval[start of FHIRHelpers.ToInterval(X.period), end of FHIRHelpers.ToInterval(TheEncounter.period)]\n\ndefine function \"Hospitalization Locations\"(TheEncounter FHIR.Encounter):\n\t( \"ED Visit\"(TheEncounter) ) EDEncounter\n    return\n        if EDEncounter is null then TheEncounter.location\n        else flatten { EDEncounter.location, TheEncounter.location }\n\ndefine function \"Hospitalization Length of Stay\"(TheEncounter FHIR.Encounter):\n\tLengthInDays(\"Hospitalization\"(TheEncounter))\n\ndefine function \"Hospital Admission Time\"(TheEncounter FHIR.Encounter):\n\tstart of \"Hospitalization\"(TheEncounter)\n\ndefine function \"Hospital Discharge Time\"(TheEncounter FHIR.Encounter):\n\tend of FHIRHelpers.ToInterval(TheEncounter.period)\n\ndefine function \"Hospital Arrival Time\"(TheEncounter FHIR.Encounter):\n\tstart of FHIRHelpers.ToInterval(First(\n\t    ( \"Hospitalization Locations\"(TheEncounter) ) HospitalLocation\n\t\t\tsort by start of FHIRHelpers.ToInterval(period)\n\t).period)\n\n// TODO - fix these (must fetch Location resources and compare id to reference)\n/*define function \"Hospital Departure Time\"(TheEncounter FHIR.Encounter):\n\tend of FHIRHelpers.ToInterval(Last(\n\t    ( \"Hospitalization Locations\"(TheEncounter) ) HospitalLocation\n\t\t\tsort by start of FHIRHelpers.ToInterval(period)\n\t).period)\n\ndefine function \"Emergency Department Arrival Time\"(TheEncounter FHIR.Encounter):\n\tstart of FHIRHelpers.ToInterval((\n\t    singleton from (\n\t        ( \"Hospitalization Locations\"(TheEncounter) ) HospitalLocation\n\t\t\t\twhere HospitalLocation.type ~ \"ER\"\n\t\t)\n\t).period)\n\ndefine function \"First Inpatient Intensive Care Unit\"(TheEncounter FHIR.Encounter):\n\tFirst(\n\t    ( TheEncounter.location ) HospitalLocation\n\t\t\twhere HospitalLocation.type ~ \"ICU\"\n\t\t\t\tand HospitalLocation.period during TheEncounter.period\n\t\t\tsort by start of FHIRHelpers.ToInterval(period)\n\t)*/\n\n\n\n\n/*\n*\n*    CQFMeasures Common Logic\n*\n*/\n\ndefine function \"Normalize Onset\"(onset Choice&lt;FHIR.dateTime, FHIR.Age, FHIR.Period, FHIR.Range, FHIR.string&gt;):\n  if onset is FHIR.dateTime then Interval[onset.value, onset.value]\n\telse if onset is FHIR.Period then FHIRHelpers.ToInterval(onset as FHIR.Period)\n\telse null\n\ndefine function \"Get Choice Interval - dateTime or Period\"(performed Choice&lt;FHIR.dateTime,FHIR.Period&gt;):\n\tif performed is FHIR.dateTime then Interval[performed.value, performed.value]\n\telse FHIRHelpers.ToInterval(performed as FHIR.Period)\n\ndefine function \"GetId\"(uri String):\n\tLast(Split(uri, '/'))\n\ndefine function \"EncounterDiagnosis\"(Encounter Encounter):\n  Encounter.diagnosis D\n    return singleton from ([Condition] C where C.id = \"GetId\"(D.condition.reference))\n\n// Returns the condition that is specified as the principal diagnosis for the encounter\ndefine function \"PrincipalDiagnosis\"(Encounter Encounter):\n\t(singleton from (Encounter.diagnosis D where D.role ~ ToConcept(\"Billing\") and D.rank = 1)) PD\n\t\treturn singleton from ([Condition] C where C.id = \"GetId\"(PD.condition.reference))\n\n// Returns the location for the given location reference\ndefine function GetLocation(reference Reference):\n  singleton from (\n    [Location] Location where Location.id.value = GetId(reference.reference)\n  )\n</code></pre>\r\n                    \r\n                    \r\n                </td>\r\n            </tr>\r\n        \r\n    </table>\r\n</div>"
        },
        "version": "2.0.000",
        "name": "MATGlobalCommonFunctions_FHIR3",
        "status": "active",
        "experimental": true,
        "type": {
          "coding": [
            {
              "system": "http://hl7.org/fhir/codesystem-library-type.html",
              "code": "logic-library"
            }
          ]
        },
        "relatedArtifact": [
          {
            "type": "depends-on",
            "resource": {
              "reference": "Library/library-FHIRHelpers-3.0.0"
            }
          }
        ],
        "dataRequirement": [
          {
            "type": "Encounter",
            "codeFilter": [
              {
                "path": "type",
                "valueSetString": "http://cts.nlm.nih.gov/fhir/ValueSet/2.16.840.1.113883.3.666.5.307"
              }
            ]
          },
          {
            "type": "Encounter",
            "codeFilter": [
              {
                "path": "type",
                "valueSetString": "http://cts.nlm.nih.gov/fhir/ValueSet/2.16.840.1.113883.3.117.1.7.1.292"
              }
            ]
          },
          {
            "type": "Condition"
          },
          {
            "type": "Condition"
          },
          {
            "type": "Location"
          }
        ],
        "content": [
          {
            "contentType": "application/elm+xml",
            "data": ""
          },
          {
            "contentType": "text/cql",
            "data": ""
          }
        ]
      },
      "request": {
        "method": "PUT",
        "url": "Library/library-MATGlobalCommonFunctions-FHIR3-2.0.000"
      }
    },
    {
      "resource": {
        "resourceType": "Library",
        "id": "library-SupplementalDataElements-FHIR3-1.0.0",
        "text": {
          "status": "generated",
          "div": "<div xmlns=\"http://www.w3.org/1999/xhtml\"><table class=\"grid dict\"><tr><th scope=\"row\"><b>Id: </b></th><td style=\"padding-left: 25px; padding-right: 25px;\">library-SupplementalDataElements-FHIR3-1.0.0</td></tr><tr><th scope=\"row\"><b>Type: </b></th><td style=\"padding-right: 25px;\"><span><br/><span><span style=\"padding-left: 25px;\"><b>system: </b><span>http://hl7.org/fhir/codesystem-library-type.html</span><br/></span><span style=\"padding-left: 25px;\"><b>code: </b><span>logic-library</span></span></span></span></td></tr><tr><th scope=\"row\"><b>Version: </b></th><td style=\"padding-left: 25px; padding-right: 25px;\">1.0.0</td></tr><tr><th scope=\"row\"><b>Status: </b></th><td style=\"padding-left: 25px; padding-right: 25px;\">active</td></tr><tr style=\"vertical-align: top;\"><th rowspan=\"1\" scope=\"row\"><b>Related: </b></th><td style=\"padding-left: 25px; padding-right: 25px;\"><p style=\"margin-bottom: 5px;\"><b>type: </b><span>depends-on</span></p><p style=\"margin-bottom: 5px;\"><b>Resource: </b><br/><span><span style=\"padding-left: 25px;\"><b>reference: </b><span>Library/library-FHIRHelpers-3.0.0</span></span></span></p></td></tr><tr style=\"vertical-align: top;\"><th rowspan=\"1\" scope=\"row\"><b>Data Requirements: </b></th><td style=\"padding-left: 25px; padding-right: 25px;\"><div xmlns=\"http://www.w3.org/1999/xhtml\"><p style=\"margin-bottom: 5px;\"><b>type: </b><span>Coverage</span></p><p style=\"margin-bottom: 5px;\"><b>code filter:</b><br/><span style=\"padding-left: 25px;\"><b>path: </b><span>type</span></span><br/><span style=\"padding-left: 25px;\"><b>valueset: </b><span>http://cts.nlm.nih.gov/fhir/ValueSet/2.16.840.1.114222.4.11.3591</span></span></p></div></td></tr>    <!-- Filter down to human readable content --><tr style=\"vertical-align: top;\"><th scope=\"row\"><b>Content: </b></th><td style=\"padding-left: 25px; padding-right: 25px;\"><b>type: </b><span>text/cql</span></td></tr><tr><td colspan=\"2\" style=\"padding-left: 25px; padding-right: 25px;\"><pre><code class=\"language-cql\">library SupplementalDataElements_FHIR3 version '1.0.0'\n\nusing FHIR version '3.0.0'\n\ninclude FHIRHelpers version '3.0.0' called FHIRHelpers\n\nvalueset \"ONC Administrative Sex\": 'http://cts.nlm.nih.gov/fhir/ValueSet/2.16.840.1.113762.1.4.1'\nvalueset \"Race\": 'http://cts.nlm.nih.gov/fhir/ValueSet/2.16.840.1.114222.4.11.836'\nvalueset \"Ethnicity\": 'http://cts.nlm.nih.gov/fhir/ValueSet/2.16.840.1.114222.4.11.837'\nvalueset \"Payer\": 'http://cts.nlm.nih.gov/fhir/ValueSet/2.16.840.1.114222.4.11.3591'\n\ncontext Patient\n\ndefine \"SDE Ethnicity\":\n  (flatten (\n    Patient.extension Extension\n      where Extension.url = 'http://hl7.org/fhir/us/core/StructureDefinition/us-core-ethnicity'\n        return Extension.extension\n  )) E\n    where E.url = 'ombCategory'\n      or E.url = 'detailed'\n    return E.value as Coding\n\ndefine \"SDE Payer\":\n    [Coverage: type in \"Payer\"] Payer\n      return {\n        code: Payer.type,\n        period: Payer.period\n      }\n\ndefine \"SDE Race\":\n  (flatten (\n    Patient.extension Extension\n      where Extension.url = 'http://hl7.org/fhir/us/core/StructureDefinition/us-core-race'\n        return Extension.extension\n  )) E\n    where E.url = 'ombCategory'\n      or E.url = 'detailed'\n    return E.value as Coding\n\ndefine \"SDE Sex\":\n  case\n    when Patient.gender = 'male' then Code { code: 'M', system: 'http://hl7.org/fhir/v3/AdministrativeGender', display: 'Male' }\n    when Patient.gender = 'female' then Code { code: 'F', system: 'http://hl7.org/fhir/v3/AdministrativeGender', display: 'Female' }\n    else null\n  end\n</code></pre>\r\n                    \r\n                    \r\n                </td>\r\n            </tr>\r\n        \r\n    </table>\r\n</div>"
        },
        "version": "1.0.0",
        "name": "SupplementalDataElements_FHIR3",
        "status": "active",
        "experimental": true,
        "type": {
          "coding": [
            {
              "system": "http://hl7.org/fhir/codesystem-library-type.html",
              "code": "logic-library"
            }
          ]
        },
        "relatedArtifact": [
          {
            "type": "depends-on",
            "resource": {
              "reference": "Library/library-FHIRHelpers-3.0.0"
            }
          }
        ],
        "dataRequirement": [
          {
            "type": "Coverage",
            "codeFilter": [
              {
                "path": "type",
                "valueSetString": "http://cts.nlm.nih.gov/fhir/ValueSet/2.16.840.1.114222.4.11.3591"
              }
            ]
          }
        ],
        "content": [
          {
            "contentType": "application/elm+xml",
            "data": ""
          },
          {
            "contentType": "text/cql",
            "data": ""
          }
        ]
      },
      "request": {
        "method": "PUT",
        "url": "Library/library-SupplementalDataElements-FHIR3-1.0.0"
      }
    },
    {
      "resource": {
        "resourceType": "ValueSet",
        "id": "2.16.840.1.113883.3.464.1003.108.12.1038",
        "url": "http://cts.nlm.nih.gov/fhir/ValueSet/2.16.840.1.113883.3.464.1003.108.12.1038",
        "identifier": [
          {
            "system": "urn:ietf:rfc:3986",
            "value": "2.16.840.1.113883.3.464.1003.108.12.1038"
          }
        ],
        "version": "20171219",
        "name": "CTColonography",
        "title": "CT Colonography",
        "status": "active",
        "publisher": "NLM",
        "compose": {
          "include": [
            {
              "system": "http://www.ama-assn.org/go/cpt",
              "version": "2018",
              "concept": [
                {
                  "code": "74261",
                  "display": "Computed tomographic (CT) colonography, diagnostic, including image postprocessing; without contrast material"
                },
                {
                  "code": "74262",
                  "display": "Computed tomographic (CT) colonography, diagnostic, including image postprocessing; with contrast material(s) including non-contrast images, if performed"
                },
                {
                  "code": "74263",
                  "display": "Computed tomographic (CT) colonography, screening, including image postprocessing"
                }
              ]
            },
            {
              "system": "http://snomed.info/sct",
              "version": "2018-03",
              "concept": [
                {
                  "code": "418714002",
                  "display": "Virtual computed tomography colonoscopy (procedure)"
                }
              ]
            }
          ]
        }
      },
      "request": {
        "method": "PUT",
        "url": "ValueSet/2.16.840.1.113883.3.464.1003.108.12.1038"
      }
    },
    {
      "resource": {
        "resourceType": "Encounter",
        "id": "denom-EXM130-FHIR3-1",
        "meta": {
          "profile": [
            "http://hl7.org/fhir/us/core/StructureDefinition/us-core-encounter"
          ]
        },
        "status": "finished",
        "class": {
          "system": "http://terminology.hl7.org/CodeSystem/v3-ActCode",
          "code": "AMB",
          "display": "ambulatory"
        },
        "type": [
          {
            "coding": [
              {
                "system": "http://www.ama-assn.org/go/cpt",
                "code": "99201",
                "display": "Office or other outpatient visit for the evaluation and management of a new patient, which requires these 3 key components: A problem focused history; A problem focused examination; Straightforward medical decision making. Counseling and/or coordination of care with other physicians, other qualified health care professionals, or agencies are provided consistent with the nature of the problem(s) and the patient's and/or family's needs. Usually, the presenting problem(s) are self limited or minor. Typically, 10 minutes are spent face-to-face with the patient and/or family."
              }
            ]
          }
        ],
        "subject": {
          "reference": "Patient/denom-EXM130-FHIR3"
        },
        "period": {
          "start": "2019-05-30T00:00:00-00:00",
          "end": "2019-05-31T00:00:00-00:00"
        }
      },
      "request": {
        "method": "PUT",
        "url": "Encounter/denom-EXM130-FHIR3-1"
      }
    },
    {
      "resource": {
        "resourceType": "Procedure",
        "id": "numer-EXM130-FHIR3-1",
        "meta": {
          "profile": [
            "http://hl7.org/fhir/us/core/StructureDefinition/us-core-procedure"
          ]
        },
        "status": "completed",
        "code": {
          "coding": [
            {
              "system": "http://www.ama-assn.org/go/cpt",
              "code": "44393",
              "display": "Colonoscopy through stoma; with ablation of tumor(s), polyp(s), or other lesion(s) not amenable to removal by hot biopsy forceps, bipolar cautery or snare technique"
            }
          ]
        },
        "subject": {
          "reference": "Patient/numer-EXM130-FHIR3"
        },
        "performedPeriod": {
          "start": "2010-01-01T00:00:00",
          "end": "2010-01-01T01:00:00"
        }
      },
      "request": {
        "method": "PUT",
        "url": "Procedure/numer-EXM130-FHIR3-1"
      }
    },
    {
      "resource": {
        "resourceType": "ValueSet",
        "id": "2.16.840.1.113762.1.4.1",
        "url": "http://cts.nlm.nih.gov/fhir/ValueSet/2.16.840.1.113762.1.4.1",
        "identifier": [
          {
            "system": "urn:ietf:rfc:3986",
            "value": "2.16.840.1.113762.1.4.1"
          }
        ],
        "version": "20150331",
        "name": "ONCAdministrativeSex",
        "title": "ONC Administrative Sex",
        "status": "active",
        "publisher": "NLM",
        "compose": {
          "include": [
            {
              "system": "http://hl7.org/fhir/v3/AdministrativeGender",
              "version": "HL7V3.0_2017-07",
              "concept": [
                {
                  "code": "F",
                  "display": "Female"
                },
                {
                  "code": "M",
                  "display": "Male"
                }
              ]
            }
          ]
        }
      },
      "request": {
        "method": "PUT",
        "url": "ValueSet/2.16.840.1.113762.1.4.1"
      }
    },
    {
      "resource": {
        "resourceType": "ValueSet",
        "id": "2.16.840.1.113883.3.464.1003.108.12.1001",
        "url": "http://cts.nlm.nih.gov/fhir/ValueSet/2.16.840.1.113883.3.464.1003.108.12.1001",
        "identifier": [
          {
            "system": "urn:ietf:rfc:3986",
            "value": "2.16.840.1.113883.3.464.1003.108.12.1001"
          }
        ],
        "version": "20171222",
        "name": "MalignantNeoplasmofColon",
        "title": "Malignant Neoplasm of Colon",
        "status": "active",
        "publisher": "NLM",
        "compose": {
          "include": [
            {
              "system": "http://hl7.org/fhir/sid/icd-10",
              "version": "2019",
              "concept": [
                {
                  "code": "C18.0",
                  "display": "Malignant neoplasm of cecum"
                },
                {
                  "code": "C18.1",
                  "display": "Malignant neoplasm of appendix"
                },
                {
                  "code": "C18.2",
                  "display": "Malignant neoplasm of ascending colon"
                },
                {
                  "code": "C18.3",
                  "display": "Malignant neoplasm of hepatic flexure"
                },
                {
                  "code": "C18.4",
                  "display": "Malignant neoplasm of transverse colon"
                },
                {
                  "code": "C18.5",
                  "display": "Malignant neoplasm of splenic flexure"
                },
                {
                  "code": "C18.6",
                  "display": "Malignant neoplasm of descending colon"
                },
                {
                  "code": "C18.7",
                  "display": "Malignant neoplasm of sigmoid colon"
                },
                {
                  "code": "C18.8",
                  "display": "Malignant neoplasm of overlapping sites of colon"
                },
                {
                  "code": "C18.9",
                  "display": "Malignant neoplasm of colon, unspecified"
                },
                {
                  "code": "C19",
                  "display": "Malignant neoplasm of rectosigmoid junction"
                },
                {
                  "code": "C20",
                  "display": "Malignant neoplasm of rectum"
                },
                {
                  "code": "C21.2",
                  "display": "Malignant neoplasm of cloacogenic zone"
                },
                {
                  "code": "C21.8",
                  "display": "Malignant neoplasm of overlapping sites of rectum, anus and anal canal"
                },
                {
                  "code": "C78.5",
                  "display": "Secondary malignant neoplasm of large intestine and rectum"
                }
              ]
            },
            {
              "system": "http://hl7.org/fhir/sid/icd-9-cm",
              "version": "2013",
              "concept": [
                {
                  "code": "153.0",
                  "display": "Malignant neoplasm of hepatic flexure"
                },
                {
                  "code": "153.1",
                  "display": "Malignant neoplasm of transverse colon"
                },
                {
                  "code": "153.2",
                  "display": "Malignant neoplasm of descending colon"
                },
                {
                  "code": "153.3",
                  "display": "Malignant neoplasm of sigmoid colon"
                },
                {
                  "code": "153.4",
                  "display": "Malignant neoplasm of cecum"
                },
                {
                  "code": "153.5",
                  "display": "Malignant neoplasm of appendix vermiformis"
                },
                {
                  "code": "153.6",
                  "display": "Malignant neoplasm of ascending colon"
                },
                {
                  "code": "153.7",
                  "display": "Malignant neoplasm of splenic flexure"
                },
                {
                  "code": "153.8",
                  "display": "Malignant neoplasm of other specified sites of large intestine"
                },
                {
                  "code": "153.9",
                  "display": "Malignant neoplasm of colon, unspecified site"
                },
                {
                  "code": "154.0",
                  "display": "Malignant neoplasm of rectosigmoid junction"
                },
                {
                  "code": "154.1",
                  "display": "Malignant neoplasm of rectum"
                },
                {
                  "code": "197.5",
                  "display": "Secondary malignant neoplasm of large intestine and rectum"
                }
              ]
            },
            {
              "system": "http://snomed.info/sct",
              "version": "2012-07",
              "concept": [
                {
                  "code": "187758006",
                  "display": "Malignant neoplasm of other specified sites of colon (disorder)"
                }
              ]
            },
            {
              "system": "http://snomed.info/sct",
              "version": "2018-03",
              "concept": [
                {
                  "code": "109838007",
                  "display": "Overlapping malignant neoplasm of colon (disorder)"
                },
                {
                  "code": "133751000119102",
                  "display": "Lymphoma of colon (disorder)"
                },
                {
                  "code": "1701000119104",
                  "display": "Primary adenocarcinoma of colon (disorder)"
                },
                {
                  "code": "184881000119106",
                  "display": "Primary adenocarcinoma of rectosigmoid junction (disorder)"
                },
                {
                  "code": "187757001",
                  "display": "Malignant neoplasm, overlapping lesion of colon (disorder)"
                },
                {
                  "code": "269533000",
                  "display": "Carcinoma of colon (disorder)"
                },
                {
                  "code": "269544008",
                  "display": "Carcinoma of the rectosigmoid junction (disorder)"
                },
                {
                  "code": "285312008",
                  "display": "Carcinoma of sigmoid colon (disorder)"
                },
                {
                  "code": "285611007",
                  "display": "Metastasis to colon of unknown primary (disorder)"
                },
                {
                  "code": "301756000",
                  "display": "Adenocarcinoma of sigmoid colon (disorder)"
                },
                {
                  "code": "312111009",
                  "display": "Carcinoma of ascending colon (disorder)"
                },
                {
                  "code": "312112002",
                  "display": "Carcinoma of transverse colon (disorder)"
                },
                {
                  "code": "312113007",
                  "display": "Carcinoma of descending colon (disorder)"
                },
                {
                  "code": "312114001",
                  "display": "Carcinoma of hepatic flexure (disorder)"
                },
                {
                  "code": "312115000",
                  "display": "Carcinoma of splenic flexure (disorder)"
                },
                {
                  "code": "314965007",
                  "display": "Local recurrence of malignant tumor of colon (disorder)"
                },
                {
                  "code": "315058005",
                  "display": "Hereditary nonpolyposis colon cancer (disorder)"
                },
                {
                  "code": "363406005",
                  "display": "Malignant neoplasm of colon (disorder)"
                },
                {
                  "code": "363407001",
                  "display": "Malignant tumor of hepatic flexure (disorder)"
                },
                {
                  "code": "363408006",
                  "display": "Malignant tumor of transverse colon (disorder)"
                },
                {
                  "code": "363409003",
                  "display": "Malignant tumor of descending colon (disorder)"
                },
                {
                  "code": "363410008",
                  "display": "Malignant tumor of sigmoid colon (disorder)"
                },
                {
                  "code": "363412000",
                  "display": "Malignant tumor of ascending colon (disorder)"
                },
                {
                  "code": "363413005",
                  "display": "Malignant tumor of splenic flexure (disorder)"
                },
                {
                  "code": "363414004",
                  "display": "Malignant tumor of rectosigmoid junction (disorder)"
                },
                {
                  "code": "363510005",
                  "display": "Malignant tumor of large intestine (disorder)"
                },
                {
                  "code": "425178004",
                  "display": "Adenocarcinoma of rectosigmoid junction (disorder)"
                },
                {
                  "code": "449218003",
                  "display": "Lymphoma of sigmoid colon (disorder)"
                },
                {
                  "code": "681601000119101",
                  "display": "Primary adenocarcinoma of ascending colon (disorder)"
                },
                {
                  "code": "716654007",
                  "display": "Non-polyposis Turcot syndrome (disorder)"
                },
                {
                  "code": "721695008",
                  "display": "Primary adenocarcinoma of ascending colon and right flexure (disorder)"
                },
                {
                  "code": "721696009",
                  "display": "Primary adenocarcinoma of transverse colon (disorder)"
                },
                {
                  "code": "721699002",
                  "display": "Primary adenocarcinoma of descending colon and splenic flexure (disorder)"
                },
                {
                  "code": "737058005",
                  "display": "Microsatellite instability-high colorectal cancer (disorder)"
                },
                {
                  "code": "93683002",
                  "display": "Primary malignant neoplasm of ascending colon (disorder)"
                },
                {
                  "code": "93761005",
                  "display": "Primary malignant neoplasm of colon (disorder)"
                },
                {
                  "code": "93771007",
                  "display": "Primary malignant neoplasm of descending colon (disorder)"
                },
                {
                  "code": "93826009",
                  "display": "Primary malignant neoplasm of hepatic flexure of colon (disorder)"
                },
                {
                  "code": "93980002",
                  "display": "Primary malignant neoplasm of rectosigmoid junction (disorder)"
                },
                {
                  "code": "94006002",
                  "display": "Primary malignant neoplasm of sigmoid colon (disorder)"
                },
                {
                  "code": "94072004",
                  "display": "Primary malignant neoplasm of splenic flexure of colon (disorder)"
                },
                {
                  "code": "94105000",
                  "display": "Primary malignant neoplasm of transverse colon (disorder)"
                },
                {
                  "code": "94179005",
                  "display": "Secondary malignant neoplasm of ascending colon (disorder)"
                },
                {
                  "code": "94260004",
                  "display": "Secondary malignant neoplasm of colon (disorder)"
                },
                {
                  "code": "94271003",
                  "display": "Secondary malignant neoplasm of descending colon (disorder)"
                },
                {
                  "code": "94328005",
                  "display": "Secondary malignant neoplasm of hepatic flexure of colon (disorder)"
                },
                {
                  "code": "94509004",
                  "display": "Secondary malignant neoplasm of rectosigmoid junction (disorder)"
                },
                {
                  "code": "94538001",
                  "display": "Secondary malignant neoplasm of sigmoid colon (disorder)"
                },
                {
                  "code": "94604000",
                  "display": "Secondary malignant neoplasm of splenic flexure of colon (disorder)"
                },
                {
                  "code": "94643001",
                  "display": "Secondary malignant neoplasm of transverse colon (disorder)"
                },
                {
                  "code": "96281000119107",
                  "display": "Overlapping malignant neoplasm of colon and rectum (disorder)"
                },
                {
                  "code": "96981000119102",
                  "display": "Malignant neoplasm of rectosigmoid junction metastatic to brain (disorder)"
                }
              ]
            }
          ]
        }
      },
      "request": {
        "method": "PUT",
        "url": "ValueSet/2.16.840.1.113883.3.464.1003.108.12.1001"
      }
    },
    {
      "resource": {
        "resourceType": "ValueSet",
        "id": "2.16.840.1.113883.3.464.1003.108.12.1020",
        "url": "http://cts.nlm.nih.gov/fhir/ValueSet/2.16.840.1.113883.3.464.1003.108.12.1020",
        "identifier": [
          {
            "system": "urn:ietf:rfc:3986",
            "value": "2.16.840.1.113883.3.464.1003.108.12.1020"
          }
        ],
        "version": "20171219",
        "name": "Colonoscopy",
        "title": "Colonoscopy",
        "status": "active",
        "publisher": "NLM",
        "compose": {
          "include": [
            {
              "system": "http://www.ama-assn.org/go/cpt",
              "version": "2014",
              "concept": [
                {
                  "code": "44393",
                  "display": "Colonoscopy through stoma; with ablation of tumor(s), polyp(s), or other lesion(s) not amenable to removal by hot biopsy forceps, bipolar cautery or snare technique"
                },
                {
                  "code": "44397",
                  "display": "Colonoscopy through stoma; with transendoscopic stent placement (includes predilation)"
                },
                {
                  "code": "45355",
                  "display": "Colonoscopy, rigid or flexible, transabdominal via colotomy, single or multiple"
                },
                {
                  "code": "45383",
                  "display": "Colonoscopy, flexible, proximal to splenic flexure; with ablation of tumor(s), polyp(s), or other lesion(s) not amenable to removal by hot biopsy forceps, bipolar cautery or snare technique"
                },
                {
                  "code": "45387",
                  "display": "Colonoscopy, flexible, proximal to splenic flexure; with transendoscopic stent placement (includes predilation)"
                }
              ]
            },
            {
              "system": "http://www.ama-assn.org/go/cpt",
              "version": "2018",
              "concept": [
                {
                  "code": "44388",
                  "display": "Colonoscopy through stoma; diagnostic, including collection of specimen(s) by brushing or washing, when performed (separate procedure)"
                },
                {
                  "code": "44389",
                  "display": "Colonoscopy through stoma; with biopsy, single or multiple"
                },
                {
                  "code": "44390",
                  "display": "Colonoscopy through stoma; with removal of foreign body(s)"
                },
                {
                  "code": "44391",
                  "display": "Colonoscopy through stoma; with control of bleeding, any method"
                },
                {
                  "code": "44392",
                  "display": "Colonoscopy through stoma; with removal of tumor(s), polyp(s), or other lesion(s) by hot biopsy forceps"
                },
                {
                  "code": "44394",
                  "display": "Colonoscopy through stoma; with removal of tumor(s), polyp(s), or other lesion(s) by snare technique"
                },
                {
                  "code": "44401",
                  "display": "Colonoscopy through stoma; with ablation of tumor(s), polyp(s), or other lesion(s) (includes pre-and post-dilation and guide wire passage, when performed)"
                },
                {
                  "code": "44402",
                  "display": "Colonoscopy through stoma; with endoscopic stent placement (including pre- and post-dilation and guide wire passage, when performed)"
                },
                {
                  "code": "44403",
                  "display": "Colonoscopy through stoma; with endoscopic mucosal resection"
                },
                {
                  "code": "44404",
                  "display": "Colonoscopy through stoma; with directed submucosal injection(s), any substance"
                },
                {
                  "code": "44405",
                  "display": "Colonoscopy through stoma; with transendoscopic balloon dilation"
                },
                {
                  "code": "44406",
                  "display": "Colonoscopy through stoma; with endoscopic ultrasound examination, limited to the sigmoid, descending, transverse, or ascending colon and cecum and adjacent structures"
                },
                {
                  "code": "44407",
                  "display": "Colonoscopy through stoma; with transendoscopic ultrasound guided intramural or transmural fine needle aspiration/biopsy(s), includes endoscopic ultrasound examination limited to the sigmoid, descending, transverse, or ascending colon and cecum and adjacent structures"
                },
                {
                  "code": "44408",
                  "display": "Colonoscopy through stoma; with decompression (for pathologic distention) (eg, volvulus, megacolon), including placement of decompression tube, when performed"
                },
                {
                  "code": "45378",
                  "display": "Colonoscopy, flexible; diagnostic, including collection of specimen(s) by brushing or washing, when performed (separate procedure)"
                },
                {
                  "code": "45379",
                  "display": "Colonoscopy, flexible; with removal of foreign body(s)"
                },
                {
                  "code": "45380",
                  "display": "Colonoscopy, flexible; with biopsy, single or multiple"
                },
                {
                  "code": "45381",
                  "display": "Colonoscopy, flexible; with directed submucosal injection(s), any substance"
                },
                {
                  "code": "45382",
                  "display": "Colonoscopy, flexible; with control of bleeding, any method"
                },
                {
                  "code": "45384",
                  "display": "Colonoscopy, flexible; with removal of tumor(s), polyp(s), or other lesion(s) by hot biopsy forceps"
                },
                {
                  "code": "45385",
                  "display": "Colonoscopy, flexible; with removal of tumor(s), polyp(s), or other lesion(s) by snare technique"
                },
                {
                  "code": "45386",
                  "display": "Colonoscopy, flexible; with transendoscopic balloon dilation"
                },
                {
                  "code": "45388",
                  "display": "Colonoscopy, flexible; with ablation of tumor(s), polyp(s), or other lesion(s) (includes pre- and post-dilation and guide wire passage, when performed)"
                },
                {
                  "code": "45389",
                  "display": "Colonoscopy, flexible; with endoscopic stent placement (includes pre- and post-dilation and guide wire passage, when performed)"
                },
                {
                  "code": "45390",
                  "display": "Colonoscopy, flexible; with endoscopic mucosal resection"
                },
                {
                  "code": "45391",
                  "display": "Colonoscopy, flexible; with endoscopic ultrasound examination limited to the rectum, sigmoid, descending, transverse, or ascending colon and cecum, and adjacent structures"
                },
                {
                  "code": "45392",
                  "display": "Colonoscopy, flexible; with transendoscopic ultrasound guided intramural or transmural fine needle aspiration/biopsy(s), includes endoscopic ultrasound examination limited to the rectum, sigmoid, descending, transverse, or ascending colon and cecum, and adjacent structures"
                },
                {
                  "code": "45393",
                  "display": "Colonoscopy, flexible; with decompression (for pathologic distention) (eg, volvulus, megacolon), including placement of decompression tube, when performed"
                },
                {
                  "code": "45398",
                  "display": "Colonoscopy, flexible; with band ligation(s) (eg, hemorrhoids)"
                }
              ]
            },
            {
              "system": "https://www.cms.gov/Medicare/Coding/MedHCPCSGenInfo/index.html",
              "version": "2018",
              "concept": [
                {
                  "code": "G0105",
                  "display": "Colorectal cancer screening; colonoscopy on individual at high risk"
                },
                {
                  "code": "G0121",
                  "display": "Colorectal cancer screening; colonoscopy on individual not meeting criteria for high risk"
                }
              ]
            },
            {
              "system": "http://snomed.info/sct",
              "version": "2018-03",
              "concept": [
                {
                  "code": "12350003",
                  "display": "Colonoscopy with rigid sigmoidoscope through colotomy (procedure)"
                },
                {
                  "code": "174158000",
                  "display": "Open colonoscopy (procedure)"
                },
                {
                  "code": "235150006",
                  "display": "Total colonoscopy (procedure)"
                },
                {
                  "code": "235151005",
                  "display": "Limited colonoscopy (procedure)"
                },
                {
                  "code": "25732003",
                  "display": "Fiberoptic colonoscopy with biopsy (procedure)"
                },
                {
                  "code": "310634005",
                  "display": "Check colonoscopy (procedure)"
                },
                {
                  "code": "34264006",
                  "display": "Intraoperative colonoscopy (procedure)"
                },
                {
                  "code": "367535003",
                  "display": "Fiberoptic colonoscopy (procedure)"
                },
                {
                  "code": "425672002",
                  "display": "Diagnostic endoscopic examination of ileoanal pouch and biopsy of ileoanal pouch using colonoscope (procedure)"
                },
                {
                  "code": "425937002",
                  "display": "Diagnostic endoscopic examination of enteric pouch using colonoscope (procedure)"
                },
                {
                  "code": "427459009",
                  "display": "Diagnostic endoscopic examination of colonic pouch and biopsy of colonic pouch using colonoscope (procedure)"
                },
                {
                  "code": "443998000",
                  "display": "Colonoscopy through colostomy with endoscopic biopsy of colon (procedure)"
                },
                {
                  "code": "444783004",
                  "display": "Screening colonoscopy (procedure)"
                },
                {
                  "code": "446521004",
                  "display": "Colonoscopy and excision of mucosa of colon (procedure)"
                },
                {
                  "code": "446745002",
                  "display": "Colonoscopy and biopsy of colon (procedure)"
                },
                {
                  "code": "447021001",
                  "display": "Colonoscopy and tattooing (procedure)"
                },
                {
                  "code": "709421007",
                  "display": "Colonoscopy and dilatation of stricture of colon (procedure)"
                },
                {
                  "code": "710293001",
                  "display": "Colonoscopy using fluoroscopic guidance (procedure)"
                },
                {
                  "code": "711307001",
                  "display": "Colonoscopy using X-ray guidance (procedure)"
                },
                {
                  "code": "713154003",
                  "display": "Endoscopic submucosal dissection of rectum using colonoscope (procedure)"
                },
                {
                  "code": "73761001",
                  "display": "Colonoscopy (procedure)"
                },
                {
                  "code": "8180007",
                  "display": "Fiberoptic colonoscopy through colostomy (procedure)"
                },
                {
                  "code": "851000119109",
                  "display": "History of colonoscopy (situation)"
                }
              ]
            }
          ]
        }
      },
      "request": {
        "method": "PUT",
        "url": "ValueSet/2.16.840.1.113883.3.464.1003.108.12.1020"
      }
    },
    {
      "resource": {
        "resourceType": "Patient",
        "id": "numer-EXM130-FHIR3",
        "meta": {
          "profile": [
            "http://hl7.org/fhir/us/core/StructureDefinition/us-core-patient"
          ]
        },
        "extension": [
          {
            "url": "http://hl7.org/fhir/us/core/StructureDefinition/us-core-race",
            "extension": [
              {
                "url": "ombCategory",
                "valueCoding": {
                  "system": "urn:oid:2.16.840.1.113883.6.238",
                  "code": "2028-9",
                  "display": "Asian"
                }
              }
            ]
          },
          {
            "url": "http://hl7.org/fhir/us/core/StructureDefinition/us-core-ethnicity",
            "extension": [
              {
                "url": "ombCategory",
                "valueCoding": {
                  "system": "urn:oid:2.16.840.1.113883.6.238",
                  "code": "2135-2",
                  "display": "Hispanic or Latino"
                }
              }
            ]
          }
        ],
        "identifier": [
          {
            "use": "usual",
            "type": {
              "coding": [
                {
                  "system": "http://terminology.hl7.org/CodeSystem/v2-0203",
                  "code": "MR",
                  "display": "Medical Record Number"
                }
              ]
            },
            "system": "http://hospital.smarthealthit.org",
            "value": "999999992"
          }
        ],
        "name": [
          {
            "family": "Blitz",
            "given": [
              "Don"
            ]
          }
        ],
        "gender": "male",
        "birthDate": "1965-01-01"
      },
      "request": {
        "method": "PUT",
        "url": "Patient/numer-EXM130-FHIR3"
      }
    },
    {
      "resource": {
        "resourceType": "Measure",
        "id": "measure-exm130-FHIR3",
        "meta": {
          "versionId": "4",
          "lastUpdated": "2019-08-16T23:22:37.968+00:00",
          "profile": [
            "http://hl7.org/fhir/us/cqfmeasures/StructureDefinition/proportion-measure-cqfm"
          ]
        },
        "text": {
          "status": "generated",
          "div": "<div xmlns=\"http://www.w3.org/1999/xhtml\"><table class=\"grid dict\"><tr style=\"vertical-align: top;\"><th scope=\"row\"><b>Id: </b></th><td style=\"padding-left: 25px; padding-right: 25px;\">Measure/measure-exm130-FHIR3</td></tr><tr style=\"vertical-align: top;\"><th rowspan=\"1\" scope=\"row\"><b>Type: </b></th><td style=\"padding-left: 25px; padding-right: 25px;\"><span><br/><span><span style=\"padding-left: 25px;\"><b>system: </b><span>http://hl7.org/fhir/measure-type</span><br/></span><span style=\"padding-left: 25px;\"><b>code: </b><span>process</span></span></span></span></td></tr><tr style=\"vertical-align: top;\"><th rowspan=\"2\" scope=\"row\"><b>Identifier: </b></th><td style=\"padding-left: 25px; padding-right: 25px;\"><b>system: </b><span>http://hl7.org/fhir/cqi/ecqm/Measure/Identifier/cms</span><br/><b>value: </b><span>130</span></td></tr><tr style=\"vertical-align: top;\"><td style=\"padding-left: 25px; padding-right: 25px;\"><b>system: </b><span>http://hl7.org/fhir/cqi/ecqm/Measure/Identifier/nqf</span><br/><b>value: </b><span>0034</span></td></tr><tr style=\"vertical-align: top;\"><th scope=\"row\"><b>Title: </b></th><td style=\"padding-left: 25px; padding-right: 25px;\">Colorectal Cancer Screening</td></tr><tr style=\"vertical-align: top;\"><th scope=\"row\"><b>Status: </b></th><td style=\"padding-left: 25px; padding-right: 25px;\">active</td></tr><tr style=\"vertical-align: top;\"><th scope=\"row\"><b>Description: </b></th><td style=\"padding-left: 25px; padding-right: 25px;\">Percentage of adults 50-75 years of age who had appropriate screening for colorectal cancer</td></tr><tr style=\"vertical-align: top;\"><th scope=\"row\"><b>Purpose: </b></th><td style=\"padding-left: 25px; padding-right: 25px;\">Patients 50-75 years of age with a visit during the measurement period</td></tr><tr style=\"vertical-align: top;\"><th rowspan=\"1\" scope=\"row\"><b>Use Context: </b></th><td style=\"padding-left: 25px; padding-right: 25px;\"><p style=\"padding-left: 25px; margin-bottom: 5px;\"><b>code: </b><span>program</span></p><p style=\"padding-left: 25px; margin-bottom: 5px;\"><b>value: </b><br/><span><span style=\"padding-left: 25px;\"><b>text: </b><span>eligible-provider</span></span></span></p></td></tr><tr style=\"vertical-align: top;\"><th rowspan=\"1\" scope=\"row\"><b>Topic: </b></th><td style=\"padding-right: 25px;\"><span><br/><span><span style=\"padding-left: 25px;\"><b>system: </b><span>http://loinc.org</span><br/></span><span style=\"padding-left: 25px;\"><b>code: </b><span>57024-2</span><br/></span><span style=\"padding-left: 25px;\"><b>display: </b><span>Health Quality Measure Document</span></span></span></span></td></tr><tr style=\"vertical-align: top;\"><th rowspan=\"1\" scope=\"row\"><b>Contributor: </b></th><td style=\"padding-left: 25px; padding-right: 25px;\"><b><span>author</span>: </b><span>National Committee for Quality Assurance</span></td></tr><tr style=\"vertical-align: top;\"><th rowspan=\"3\" scope=\"row\"><b>Related: </b></th><td style=\"padding-left: 25px; padding-right: 25px;\"><p style=\"margin-bottom: 5px;\"><b>type: </b><span>citation</span></p><p style=\"margin-bottom: 5px;\"><b>citation: </b><br/><span>U.S. Preventive Services Task Force. \"Screening for Colorectal Cancer: U.S. Preventive Services Task Force Recommendation Statement.\" JAMA, vol. 315, no. 23, 2016, pp. 2564-2575. doi: 10.1001/jama.2016.5989</span></p></td></tr><tr style=\"vertical-align: top;\"><td style=\"padding-left: 25px; padding-right: 25px;\"><p style=\"margin-bottom: 5px;\"><b>type: </b><span>citation</span></p><p style=\"margin-bottom: 5px;\"><b>citation: </b><br/><span>Howlader, N., A.M. Noone, M. Krapcho, D. Miller, K. Bishop, C.L. Kosary, M. Yu, J. Ruhl, Z. Tatalovich, A. Mariotto, D.R. Lewis, H.S. Chen, E.J. Feuer, and K.A. Cronin. \"SEER Cancer Statistics Review, 1975-2014.\" Washington, DC: National Cancer Institute, 2017. Available at https://seer.cancer.gov/csr/1975_2014/</span></p></td></tr><tr style=\"vertical-align: top;\"><td style=\"padding-left: 25px; padding-right: 25px;\"><p style=\"margin-bottom: 5px;\"><b>type: </b><span>citation</span></p><p style=\"margin-bottom: 5px;\"><b>citation: </b><br/><span>American Cancer Society. \"Can Colorectal Polyps and Cancer Be Found Early?\" Last modified March 2017. Washington, DC: American Cancer Society. Available at https://www.cancer.org/cancer/colon-rectal-cancer/detection-diagnosis-staging/detection.html.</span></p></td></tr><tr style=\"vertical-align: top;\"><th rowspan=\"1\" scope=\"row\"><b>Library: </b></th><td><p style=\"padding-left: 25px; padding-right: 25px;\"><b>reference: </b><span>Library/library-exm130-FHIR3</span></p></td></tr><tr><th scope=\"row\"><b>Disclaimer: </b></th><td style=\"padding-left: 25px; padding-right: 25px;\">The performance Measure is not a clinical guideline and does not establish a standard of medical care, and has not been tested for all potential applications. THE MEASURE AND SPECIFICATIONS ARE PROVIDED \"AS IS\" WITHOUT WARRANTY OF ANY KIND. Due to technical limitations, registered trademarks are indicated by (R) or [R] and unregistered trademarks are indicated by (TM) or [TM].</td></tr><tr><th scope=\"row\"><b>Scoring: </b></th><td style=\"padding-left: 25px; padding-right: 25px;\"><span><br/><span><span style=\"padding-left: 25px;\"><b>system: </b><span>http://hl7.org/fhir/measure-scoring</span><br/></span><span style=\"padding-left: 25px;\"><b>code: </b><span>proportion</span></span></span></span></td></tr><tr><th scope=\"row\"><b>Rationale: </b></th><td style=\"padding-left: 25px; padding-right: 25px;\">Colorectal cancer represents 8 percent of all new cancer cases and is the second leading cause of cancer deaths in the United States. In 2017, there were an estimated 135,430 new cases of colorectal cancer and an estimated 50,260 deaths attributed to it. According to the National Cancer Institute, about 4.3 percent of men and women will be diagnosed with colorectal cancer at some point during their lifetimes. For most adults, older age is the most important risk factor for colorectal cancer, although being male and black are also associated with higher incidence and mortality. Colorectal cancer is most frequently diagnosed among people 65 to 74 years old (Howlader et al. 2017). Screening can be effective for finding precancerous lesions (polyps) that could later become malignant, and for detecting early cancers that can be more easily and effectively treated. Precancerous polyps usually take about 10 to 15 years to develop into colorectal cancer, and most can be found and removed before turning into cancer. The five-year relative survival rate for people whose colorectal cancer is found in the early stage before it has spread is about 90 percent (American Cancer Society 2017).</td></tr><tr><th scope=\"row\"><b>Clinical Recommendation: </b></th><td style=\"padding-left: 25px; padding-right: 25px;\">The U. S. Preventive Services Task Force (2016) recommends screening for colorectal cancer starting at age 50 years and continuing until age 75 years. This is a Grade A recommendation (U.S. Preventive Services Task Force 2016). Screening tests: -Colonoscopy (every 10 years) -Flexible sigmoidoscopy (every 5 years) -Fecal occult blood test (annually) -FIT-DNA (every 3 years) -Computed tomographic colonography (every 5 years)</td></tr><tr><th scope=\"row\"><b>Guidance: </b></th><td style=\"padding-left: 25px; padding-right: 25px;\">Patient self-report for procedures as well as diagnostic studies should be recorded in \"Procedure, Performed\" template or \"Diagnostic Study, Performed\" template in QRDA-1. Do not count DRE, FOBT tests performed in an office setting or performed on a sample collected via DRE.</td></tr><tr style=\"vertical-align: top;\"><th scope=\"row\"><b>Group:</b></th><td><p style=\"padding-left: 25px; padding-right: 25px;\"><b>Identifier:</b><br/><span style=\"padding-left: 25px;\"><b>value: </b><span>group-1</span><br/></span></p></td></tr><tr style=\"vertical-align: top;\"><td colspan=\"2\"><table style=\"margin-bottom: 5px; width: 100%\"><tr style=\"vertical-align: top;\"><th rowspan=\"4\" scope=\"row\" style=\"padding-left: 25px;\"><b>Population:</b></th><td><p style=\"margin-bottom: 5px; padding-left: 25px;\"><b>Identifier:</b><br/><span style=\"padding-left: 25px;\"><b>value: </b><span>initial-population-identifier</span><br/></span></p><p style=\"margin-bottom: 5px; padding-left: 25px;\"><b>criteria: </b><span>Initial Population</span></p></td></tr><tr style=\"vertical-align: top;\"><td><p style=\"margin-bottom: 5px; padding-left: 25px;\"><b>Identifier:</b><br/><span style=\"padding-left: 25px;\"><b>value: </b><span>numerator-identifier</span><br/></span></p><p style=\"margin-bottom: 5px; padding-left: 25px;\"><b>criteria: </b><span>Numerator</span></p></td></tr><tr style=\"vertical-align: top;\"><td><p style=\"margin-bottom: 5px; padding-left: 25px;\"><b>Identifier:</b><br/><span style=\"padding-left: 25px;\"><b>value: </b><span>denominator-identifier</span><br/></span></p><p style=\"margin-bottom: 5px; padding-left: 25px;\"><b>criteria: </b><span>Denominator</span></p></td></tr><tr style=\"vertical-align: top;\"><td><p style=\"margin-bottom: 5px; padding-left: 25px;\"><b>Identifier:</b><br/><span style=\"padding-left: 25px;\"><b>value: </b><span>denominator-exclusions-identifier</span><br/></span></p><p style=\"margin-bottom: 5px; padding-left: 25px;\"><b>criteria: </b><span>Denominator Exclusion</span></p></td></tr></table></td></tr><tr><th rowspan=\"4\" scope=\"row\"><b>Supplemental Data:</b></th><td style=\"padding-left: 25px; padding-right: 25px;\"><p style=\"margin-bottom: 5px;\"><b>Identifier:</b><br/><span style=\"padding-left: 25px;\"><b>value: </b><span>sde-ethnicity</span><br/></span></p><p style=\"margin-bottom: 5px;\"><b>usage: </b><span><span><br/><span><span style=\"padding-left: 25px;\"><b>system: </b><span>http://hl7.org/fhir/measure-data-usage</span><br/></span><span style=\"padding-left: 25px;\"><b>code: </b><span>supplemental-data</span></span></span></span></span></p><p style=\"margin-bottom: 5px;\"><b>criteria: </b><span>SDE Ethnicity</span></p></td></tr><tr><td style=\"padding-left: 25px; padding-right: 25px;\"><p style=\"margin-bottom: 5px;\"><b>Identifier:</b><br/><span style=\"padding-left: 25px;\"><b>value: </b><span>sde-payer</span><br/></span></p><p style=\"margin-bottom: 5px;\"><b>usage: </b><span><span><br/><span><span style=\"padding-left: 25px;\"><b>system: </b><span>http://hl7.org/fhir/measure-data-usage</span><br/></span><span style=\"padding-left: 25px;\"><b>code: </b><span>supplemental-data</span></span></span></span></span></p><p style=\"margin-bottom: 5px;\"><b>criteria: </b><span>SDE Payer</span></p></td></tr><tr><td style=\"padding-left: 25px; padding-right: 25px;\"><p style=\"margin-bottom: 5px;\"><b>Identifier:</b><br/><span style=\"padding-left: 25px;\"><b>value: </b><span>sde-race</span><br/></span></p><p style=\"margin-bottom: 5px;\"><b>usage: </b><span><span><br/><span><span style=\"padding-left: 25px;\"><b>system: </b><span>http://hl7.org/fhir/measure-data-usage</span><br/></span><span style=\"padding-left: 25px;\"><b>code: </b><span>supplemental-data</span></span></span></span></span></p><p style=\"margin-bottom: 5px;\"><b>criteria: </b><span>SDE Race</span></p></td></tr><tr><td style=\"padding-left: 25px; padding-right: 25px;\"><p style=\"margin-bottom: 5px;\"><b>Identifier:</b><br/><span style=\"padding-left: 25px;\"><b>value: </b><span>sde-sex</span><br/></span></p><p style=\"margin-bottom: 5px;\"><b>usage: </b><span><span><br/><span><span style=\"padding-left: 25px;\"><b>system: </b><span>http://hl7.org/fhir/measure-data-usage</span><br/></span><span style=\"padding-left: 25px;\"><b>code: </b><span>supplemental-data</span></span></span></span></span></p><p style=\"margin-bottom: 5px;\"><b>criteria: </b><span>SDE Sex</span></p></td></tr></table></div>"
        },
        "extension": [
          {
            "url": "http://hl7.org/fhir/us/cqfmeasures/StructureDefinition/cqfm-populationBasis",
            "valueCode": "boolean"
          }
        ],
        "url": "http://hl7.org/fhir/us/cqfmeasures/Measure/measure-exm130-FHIR3",
        "identifier": [
          {
            "use": "official",
            "system": "http://hl7.org/fhir/cqi/ecqm/Measure/Identifier/cms",
            "value": "130"
          },
          {
            "use": "official",
            "system": "http://hl7.org/fhir/cqi/ecqm/Measure/Identifier/nqf",
            "value": "0034"
          }
        ],
        "version": "7.2.000",
        "name": "EXM130",
        "title": "Colorectal Cancer Screening",
        "status": "active",
        "experimental": true,
        "date": "2018-08-28",
        "publisher": "National Committee for Quality Assurance",
        "description": "Percentage of adults 50-75 years of age who had appropriate screening for colorectal cancer",
        "purpose": "Patients 50-75 years of age with a visit during the measurement period",
        "approvalDate": "2016-01-01",
        "lastReviewDate": "2016-09-01",
        "effectivePeriod": {
          "start": "2018-01-01",
          "end": "2018-12-31"
        },
        "useContext": [
          {
            "code": {
              "code": "program"
            },
            "valueCodeableConcept": {
              "text": "eligible-provider"
            }
          }
        ],
        "jurisdiction": [
          {
            "coding": [
              {
                "system": "urn:iso:std:iso:3166",
                "code": "US"
              }
            ]
          }
        ],
        "topic": [
          {
            "coding": [
              {
                "system": "http://loinc.org",
                "code": "57024-2",
                "display": "Health Quality Measure Document"
              }
            ]
          }
        ],
        "contributor": [
          {
            "type": "author",
            "name": "National Committee for Quality Assurance"
          }
        ],
        "contact": [
          {
            "telecom": [
              {
                "system": "url",
                "value": "http://www.ncqa.org/"
              }
            ]
          }
        ],
        "copyright": "This Physician Performance Measure (Measure) and related data specifications were developed by the National Committee for Quality Assurance (NCQA). NCQA is not responsible for any use of the Measure. NCQA makes no representations, warranties, or endorsement about the quality of any organization or physician that uses or reports performance measures and NCQA has no liability to anyone who relies on such measures or specifications. NCQA holds a copyright in the Measure. The Measure can be reproduced and distributed, without modification, for noncommercial purposes (eg, use by healthcare providers in connection with their practices) without obtaining approval from NCQA. Commercial use is defined as the sale, licensing, or distribution of the Measure for commercial gain, or incorporation of the Measure into a product or service that is sold, licensed or distributed for commercial gain. All commercial uses or requests for modification must be approved by NCQA and are subject to a license at the discretion of NCQA. (C) 2012-2017 National Committee for Quality Assurance. All Rights Reserved. Limited proprietary coding is contained in the Measure specifications for user convenience. Users of proprietary code sets should obtain all necessary licenses from the owners of the code sets. NCQA disclaims all liability for use or accuracy of any third party codes contained in the specifications. CPT(R) contained in the Measure specifications is copyright 2004-2017 American Medical Association. LOINC(R) copyright 2004-2017 Regenstrief Institute, Inc. This material contains SNOMED Clinical Terms(R) (SNOMED CT[R] ) copyright 2004-2017 International Health Terminology Standards Development Organisation. ICD-10 copyright 2017 World Health Organization. All Rights Reserved.",
        "relatedArtifact": [
          {
            "type": "citation",
            "citation": "U.S. Preventive Services Task Force. \"Screening for Colorectal Cancer: U.S. Preventive Services Task Force Recommendation Statement.\" JAMA, vol. 315, no. 23, 2016, pp. 2564-2575. doi: 10.1001/jama.2016.5989"
          },
          {
            "type": "citation",
            "citation": "Howlader, N., A.M. Noone, M. Krapcho, D. Miller, K. Bishop, C.L. Kosary, M. Yu, J. Ruhl, Z. Tatalovich, A. Mariotto, D.R. Lewis, H.S. Chen, E.J. Feuer, and K.A. Cronin. \"SEER Cancer Statistics Review, 1975-2014.\" Washington, DC: National Cancer Institute, 2017. Available at https://seer.cancer.gov/csr/1975_2014/"
          },
          {
            "type": "citation",
            "citation": "American Cancer Society. \"Can Colorectal Polyps and Cancer Be Found Early?\" Last modified March 2017. Washington, DC: American Cancer Society. Available at https://www.cancer.org/cancer/colon-rectal-cancer/detection-diagnosis-staging/detection.html."
          }
        ],
        "library": [
          {
            "reference": "Library/library-exm130-FHIR3"
          }
        ],
        "disclaimer": "The performance Measure is not a clinical guideline and does not establish a standard of medical care, and has not been tested for all potential applications. THE MEASURE AND SPECIFICATIONS ARE PROVIDED \"AS IS\" WITHOUT WARRANTY OF ANY KIND. Due to technical limitations, registered trademarks are indicated by (R) or [R] and unregistered trademarks are indicated by (TM) or [TM].",
        "scoring": {
          "coding": [
            {
              "system": "http://hl7.org/fhir/measure-scoring",
              "code": "proportion"
            }
          ]
        },
        "type": [
          {
            "coding": [
              {
                "system": "http://hl7.org/fhir/measure-type",
                "code": "process"
              }
            ]
          }
        ],
        "rationale": "Colorectal cancer represents 8 percent of all new cancer cases and is the second leading cause of cancer deaths in the United States. In 2017, there were an estimated 135,430 new cases of colorectal cancer and an estimated 50,260 deaths attributed to it. According to the National Cancer Institute, about 4.3 percent of men and women will be diagnosed with colorectal cancer at some point during their lifetimes. For most adults, older age is the most important risk factor for colorectal cancer, although being male and black are also associated with higher incidence and mortality. Colorectal cancer is most frequently diagnosed among people 65 to 74 years old (Howlader et al. 2017). Screening can be effective for finding precancerous lesions (polyps) that could later become malignant, and for detecting early cancers that can be more easily and effectively treated. Precancerous polyps usually take about 10 to 15 years to develop into colorectal cancer, and most can be found and removed before turning into cancer. The five-year relative survival rate for people whose colorectal cancer is found in the early stage before it has spread is about 90 percent (American Cancer Society 2017).",
        "clinicalRecommendationStatement": "The U. S. Preventive Services Task Force (2016) recommends screening for colorectal cancer starting at age 50 years and continuing until age 75 years. This is a Grade A recommendation (U.S. Preventive Services Task Force 2016). Screening tests: -Colonoscopy (every 10 years) -Flexible sigmoidoscopy (every 5 years) -Fecal occult blood test (annually) -FIT-DNA (every 3 years) -Computed tomographic colonography (every 5 years)",
        "improvementNotation": "increase",
        "guidance": "Patient self-report for procedures as well as diagnostic studies should be recorded in \"Procedure, Performed\" template or \"Diagnostic Study, Performed\" template in QRDA-1. Do not count DRE, FOBT tests performed in an office setting or performed on a sample collected via DRE.",
        "group": [
          {
            "identifier": {
              "value": "group-1"
            },
            "population": [
              {
                "identifier": {
                  "value": "initial-population-identifier"
                },
                "code": {
                  "coding": [
                    {
                      "system": "http://terminology.hl7.org/CodeSystem/measure-population",
                      "code": "initial-population",
                      "display": "Initial Population"
                    }
                  ]
                },
                "criteria": "Initial Population"
              },
              {
                "identifier": {
                  "value": "numerator-identifier"
                },
                "code": {
                  "coding": [
                    {
                      "system": "http://terminology.hl7.org/CodeSystem/measure-population",
                      "code": "numerator",
                      "display": "Numerator"
                    }
                  ]
                },
                "criteria": "Numerator"
              },
              {
                "identifier": {
                  "value": "denominator-identifier"
                },
                "code": {
                  "coding": [
                    {
                      "system": "http://terminology.hl7.org/CodeSystem/measure-population",
                      "code": "denominator",
                      "display": "Denominator"
                    }
                  ]
                },
                "criteria": "Denominator"
              },
              {
                "identifier": {
                  "value": "denominator-exclusions-identifier"
                },
                "code": {
                  "coding": [
                    {
                      "system": "http://terminology.hl7.org/CodeSystem/measure-population",
                      "code": "denominator-exclusion",
                      "display": "Denominator Exclusion"
                    }
                  ]
                },
                "criteria": "Denominator Exclusion"
              }
            ]
          }
        ],
        "supplementalData": [
          {
            "identifier": {
              "value": "sde-ethnicity"
            },
            "usage": [
              {
                "coding": [
                  {
                    "system": "http://hl7.org/fhir/measure-data-usage",
                    "code": "supplemental-data"
                  }
                ]
              }
            ],
            "criteria": "SDE Ethnicity"
          },
          {
            "identifier": {
              "value": "sde-payer"
            },
            "usage": [
              {
                "coding": [
                  {
                    "system": "http://hl7.org/fhir/measure-data-usage",
                    "code": "supplemental-data"
                  }
                ]
              }
            ],
            "criteria": "SDE Payer"
          },
          {
            "identifier": {
              "value": "sde-race"
            },
            "usage": [
              {
                "coding": [
                  {
                    "system": "http://hl7.org/fhir/measure-data-usage",
                    "code": "supplemental-data"
                  }
                ]
              }
            ],
            "criteria": "SDE Race"
          },
          {
            "identifier": {
              "value": "sde-sex"
            },
            "usage": [
              {
                "coding": [
                  {
                    "system": "http://hl7.org/fhir/measure-data-usage",
                    "code": "supplemental-data"
                  }
                ]
              }
            ],
            "criteria": "SDE Sex"
          }
        ]
      },
      "request": {
        "method": "PUT",
        "url": "Measure/measure-exm130-FHIR3/_history/4"
      }
    },
    {
      "resource": {
        "resourceType": "Library",
        "id": "library-EXM130-FHIR3-7.2.000",
        "text": {
          "status": "generated",
          "div": "<div xmlns=\"http://www.w3.org/1999/xhtml\"><table class=\"grid dict\"><tr><th scope=\"row\"><b>Id: </b></th><td style=\"padding-left: 25px; padding-right: 25px;\">library-EXM130-FHIR3-7.2.000</td></tr><tr><th scope=\"row\"><b>Type: </b></th><td style=\"padding-right: 25px;\"><span><br/><span><span style=\"padding-left: 25px;\"><b>system: </b><span>http://hl7.org/fhir/codesystem-library-type.html</span><br/></span><span style=\"padding-left: 25px;\"><b>code: </b><span>logic-library</span></span></span></span></td></tr><tr><th scope=\"row\"><b>Version: </b></th><td style=\"padding-left: 25px; padding-right: 25px;\">7.2.000</td></tr><tr><th scope=\"row\"><b>Status: </b></th><td style=\"padding-left: 25px; padding-right: 25px;\">active</td></tr><tr style=\"vertical-align: top;\"><th rowspan=\"5\" scope=\"row\"><b>Related: </b></th><td style=\"padding-left: 25px; padding-right: 25px;\"><p style=\"margin-bottom: 5px;\"><b>type: </b><span>depends-on</span></p><p style=\"margin-bottom: 5px;\"><b>Resource: </b><br/><span><span style=\"padding-left: 25px;\"><b>reference: </b><span>Library/library-AdultOutpatientEncounters-FHIR3-1.1.000</span></span></span></p></td></tr><tr style=\"vertical-align: top;\"><td style=\"padding-left: 25px; padding-right: 25px;\"><p style=\"margin-bottom: 5px;\"><b>type: </b><span>depends-on</span></p><p style=\"margin-bottom: 5px;\"><b>Resource: </b><br/><span><span style=\"padding-left: 25px;\"><b>reference: </b><span>Library/library-MATGlobalCommonFunctions-FHIR3-2.0.000</span></span></span></p></td></tr><tr style=\"vertical-align: top;\"><td style=\"padding-left: 25px; padding-right: 25px;\"><p style=\"margin-bottom: 5px;\"><b>type: </b><span>depends-on</span></p><p style=\"margin-bottom: 5px;\"><b>Resource: </b><br/><span><span style=\"padding-left: 25px;\"><b>reference: </b><span>Library/library-Hospice-FHIR3-1.0.000</span></span></span></p></td></tr><tr style=\"vertical-align: top;\"><td style=\"padding-left: 25px; padding-right: 25px;\"><p style=\"margin-bottom: 5px;\"><b>type: </b><span>depends-on</span></p><p style=\"margin-bottom: 5px;\"><b>Resource: </b><br/><span><span style=\"padding-left: 25px;\"><b>reference: </b><span>Library/library-FHIRHelpers-3.0.0</span></span></span></p></td></tr><tr style=\"vertical-align: top;\"><td style=\"padding-left: 25px; padding-right: 25px;\"><p style=\"margin-bottom: 5px;\"><b>type: </b><span>depends-on</span></p><p style=\"margin-bottom: 5px;\"><b>Resource: </b><br/><span><span style=\"padding-left: 25px;\"><b>reference: </b><span>Library/library-SupplementalDataElements-FHIR3-1.0.0</span></span></span></p></td></tr><tr style=\"vertical-align: top;\"><th rowspan=\"7\" scope=\"row\"><b>Data Requirements: </b></th><td style=\"padding-left: 25px; padding-right: 25px;\"><div xmlns=\"http://www.w3.org/1999/xhtml\"><p style=\"margin-bottom: 5px;\"><b>type: </b><span>Procedure</span></p><p style=\"margin-bottom: 5px;\"><b>code filter:</b><br/><span style=\"padding-left: 25px;\"><b>path: </b><span>code</span></span><br/><span style=\"padding-left: 25px;\"><b>valueset: </b><span>http://cts.nlm.nih.gov/fhir/ValueSet/2.16.840.1.113883.3.464.1003.198.12.1010</span></span></p></div></td></tr><tr style=\"vertical-align: top;\"><td style=\"padding-left: 25px; padding-right: 25px;\"><div xmlns=\"http://www.w3.org/1999/xhtml\"><p style=\"margin-bottom: 5px;\"><b>type: </b><span>Procedure</span></p><p style=\"margin-bottom: 5px;\"><b>code filter:</b><br/><span style=\"padding-left: 25px;\"><b>path: </b><span>code</span></span><br/><span style=\"padding-left: 25px;\"><b>valueset: </b><span>http://cts.nlm.nih.gov/fhir/ValueSet/2.16.840.1.113883.3.464.1003.108.12.1038</span></span></p></div></td></tr><tr style=\"vertical-align: top;\"><td style=\"padding-left: 25px; padding-right: 25px;\"><div xmlns=\"http://www.w3.org/1999/xhtml\"><p style=\"margin-bottom: 5px;\"><b>type: </b><span>Procedure</span></p><p style=\"margin-bottom: 5px;\"><b>code filter:</b><br/><span style=\"padding-left: 25px;\"><b>path: </b><span>code</span></span><br/><span style=\"padding-left: 25px;\"><b>valueset: </b><span>http://cts.nlm.nih.gov/fhir/ValueSet/2.16.840.1.113883.3.464.1003.198.12.1019</span></span></p></div></td></tr><tr style=\"vertical-align: top;\"><td style=\"padding-left: 25px; padding-right: 25px;\"><div xmlns=\"http://www.w3.org/1999/xhtml\"><p style=\"margin-bottom: 5px;\"><b>type: </b><span>Condition</span></p><p style=\"margin-bottom: 5px;\"><b>code filter:</b><br/><span style=\"padding-left: 25px;\"><b>path: </b><span>code</span></span><br/><span style=\"padding-left: 25px;\"><b>valueset: </b><span>http://cts.nlm.nih.gov/fhir/ValueSet/2.16.840.1.113883.3.464.1003.108.12.1001</span></span></p></div></td></tr><tr style=\"vertical-align: top;\"><td style=\"padding-left: 25px; padding-right: 25px;\"><div xmlns=\"http://www.w3.org/1999/xhtml\"><p style=\"margin-bottom: 5px;\"><b>type: </b><span>Observation</span></p><p style=\"margin-bottom: 5px;\"><b>code filter:</b><br/><span style=\"padding-left: 25px;\"><b>path: </b><span>code</span></span><br/><span style=\"padding-left: 25px;\"><b>valueset: </b><span>http://cts.nlm.nih.gov/fhir/ValueSet/2.16.840.1.113883.3.464.1003.198.12.1011</span></span></p></div></td></tr><tr style=\"vertical-align: top;\"><td style=\"padding-left: 25px; padding-right: 25px;\"><div xmlns=\"http://www.w3.org/1999/xhtml\"><p style=\"margin-bottom: 5px;\"><b>type: </b><span>Observation</span></p><p style=\"margin-bottom: 5px;\"><b>code filter:</b><br/><span style=\"padding-left: 25px;\"><b>path: </b><span>code</span></span><br/><span style=\"padding-left: 25px;\"><b>valueset: </b><span>http://cts.nlm.nih.gov/fhir/ValueSet/2.16.840.1.113883.3.464.1003.108.12.1039</span></span></p></div></td></tr><tr style=\"vertical-align: top;\"><td style=\"padding-left: 25px; padding-right: 25px;\"><div xmlns=\"http://www.w3.org/1999/xhtml\"><p style=\"margin-bottom: 5px;\"><b>type: </b><span>Procedure</span></p><p style=\"margin-bottom: 5px;\"><b>code filter:</b><br/><span style=\"padding-left: 25px;\"><b>path: </b><span>code</span></span><br/><span style=\"padding-left: 25px;\"><b>valueset: </b><span>http://cts.nlm.nih.gov/fhir/ValueSet/2.16.840.1.113883.3.464.1003.108.12.1020</span></span></p></div></td></tr>    <!-- Filter down to human readable content --><tr style=\"vertical-align: top;\"><th scope=\"row\"><b>Content: </b></th><td style=\"padding-left: 25px; padding-right: 25px;\"><b>type: </b><span>text/cql</span></td></tr><tr><td colspan=\"2\" style=\"padding-left: 25px; padding-right: 25px;\"><pre><code class=\"language-cql\">library EXM130_FHIR3 version '7.2.000'\n\n/*\nBased on CMS130v7 - Colorectal Cancer Screening\n*/\n\n/*\nThis example is a work in progress and should not be considered a final specification\nor recommendation for guidance. This example will help guide and direct the process\nof finding conventions and usage patterns that meet the needs of the various stakeholders\nin the measure development community.\n*/\n\nusing FHIR version '3.0.0'\n\ninclude AdultOutpatientEncounters_FHIR3 version '1.1.000' called AdultOutpatientEncounters\ninclude MATGlobalCommonFunctions_FHIR3 version '2.0.000' called Global\ninclude Hospice_FHIR3 version '1.0.000' called Hospice\ninclude FHIRHelpers version '3.0.0' called FHIRHelpers\ninclude SupplementalDataElements_FHIR3 version '1.0.0' called SDE\n\nvalueset \"ONC Administrative Sex\": 'http://cts.nlm.nih.gov/fhir/ValueSet/2.16.840.1.113762.1.4.1'\nvalueset \"Race\": 'http://cts.nlm.nih.gov/fhir/ValueSet/2.16.840.1.114222.4.11.836'\nvalueset \"Ethnicity\": 'http://cts.nlm.nih.gov/fhir/ValueSet/2.16.840.1.114222.4.11.837'\nvalueset \"Payer\": 'http://cts.nlm.nih.gov/fhir/ValueSet/2.16.840.1.114222.4.11.3591'\nvalueset \"Colonoscopy\": 'http://cts.nlm.nih.gov/fhir/ValueSet/2.16.840.1.113883.3.464.1003.108.12.1020'\nvalueset \"Fecal Occult Blood Test (FOBT)\": 'http://cts.nlm.nih.gov/fhir/ValueSet/2.16.840.1.113883.3.464.1003.198.12.1011'\nvalueset \"Flexible Sigmoidoscopy\": 'http://cts.nlm.nih.gov/fhir/ValueSet/2.16.840.1.113883.3.464.1003.198.12.1010'\nvalueset \"Malignant Neoplasm of Colon\": 'http://cts.nlm.nih.gov/fhir/ValueSet/2.16.840.1.113883.3.464.1003.108.12.1001'\nvalueset \"Total Colectomy\": 'http://cts.nlm.nih.gov/fhir/ValueSet/2.16.840.1.113883.3.464.1003.198.12.1019'\nvalueset \"FIT DNA\": 'http://cts.nlm.nih.gov/fhir/ValueSet/2.16.840.1.113883.3.464.1003.108.12.1039'\nvalueset \"CT Colonography\": 'http://cts.nlm.nih.gov/fhir/ValueSet/2.16.840.1.113883.3.464.1003.108.12.1038'\n\nparameter \"Measurement Period\" Interval&lt;DateTime&gt;\n    default Interval[@2019-01-01T00:00:00.0, @2020-01-01T00:00:00.0)\n    \ncontext Patient\n\ndefine \"SDE Ethnicity\":\n  SDE.\"SDE Ethnicity\"\n\ndefine \"SDE Payer\":\n  SDE.\"SDE Payer\"\n\ndefine \"SDE Race\":\n  SDE.\"SDE Race\"\n\ndefine \"SDE Sex\":\n  SDE.\"SDE Sex\"\n\ndefine \"Denominator\":\n\ttrue\n\ndefine \"Flexible Sigmoidoscopy Performed\":\n\t[Procedure: \"Flexible Sigmoidoscopy\"] FlexibleSigmoidoscopy\n\t\twhere FlexibleSigmoidoscopy.status = 'completed'\n\t\t\tand FlexibleSigmoidoscopy.performed ends 5 years or less on or before end of \"Measurement Period\"\n\ndefine \"CT Colonography Performed\":\n\t[Procedure: \"CT Colonography\"] Colonography\n\t\twhere Colonography.status = 'completed'\n\t\t\tand Colonography.performed ends 5 years or less on or before end of \"Measurement Period\"\n\ndefine \"Total Colectomy Performed\":\n\t[Procedure: \"Total Colectomy\"] Colectomy\n\t\twhere Colectomy.status = 'completed'\n\t\t\tand Global.\"Get Choice Interval - dateTime or Period\"(Colectomy.performed) starts on or before end of \"Measurement Period\"\n\ndefine \"Malignant Neoplasm\":\n\t[Condition: \"Malignant Neoplasm of Colon\"] ColorectalCancer\n\t\twhere Global.\"Normalize Onset\"(ColorectalCancer.onset) starts on or before end of \"Measurement Period\"\n\ndefine \"Fecal Occult Blood Test Performed\":\n\t[Observation: \"Fecal Occult Blood Test (FOBT)\"] FecalOccultResult\n\t\twhere FecalOccultResult.status in {'final', 'amended', 'corrected', 'preliminary'}\n\t\t\tand FecalOccultResult.value is not null\n\t\t\tand FecalOccultResult.effective during day of \"Measurement Period\"\n\t\t\t// and FecalOccultResult.FHIR.provenance.recorded during \"Measurement Period\"\n\ndefine \"Fecal Immunochemical Test DNA\":\n\t[Observation: \"FIT DNA\"] FitDNA\n\t\twhere FitDNA.value is not null\n\t\t\tand FitDNA.effective occurs 3 years or less on or before day of end of \"Measurement Period\"\n\t\t\t// and FitDNA.FHIR.provenance.recorded occurs 3 years or less on or before end of \"Measurement Period\"\n\ndefine \"Colonoscopy Performed\":\n\t[Procedure: \"Colonoscopy\"] Colonoscopy\n\t\twhere Colonoscopy.status = 'completed'\n\t\t \tand Colonoscopy.performed ends 10 years or less on or before end of \"Measurement Period\"\n\ndefine \"Numerator\":\n\texists \"Colonoscopy Performed\"\n\t\tor exists \"Fecal Occult Blood Test Performed\"\n\t\tor exists \"Flexible Sigmoidoscopy Performed\"\n\t\tor exists \"Fecal Immunochemical Test DNA\"\n\t\tor exists \"CT Colonography Performed\"\n\ndefine \"Denominator Exclusion\":\n\tHospice.\"Has Hospice\"(\"Measurement Period\")\n\t\tor exists \"Malignant Neoplasm\"\n\t\tor exists \"Total Colectomy Performed\"\n\ndefine \"Initial Population\":\n\tGlobal.\"CalendarAgeInYearsAt\"(FHIRHelpers.ToDate(Patient.birthDate), start of \"Measurement Period\") in Interval[50, 75]\n\t\t\tand exists AdultOutpatientEncounters.\"Qualifying Encounters\"(\"Measurement Period\")\n</code></pre>\r\n                    \r\n                    \r\n                </td>\r\n            </tr>\r\n        \r\n    </table>\r\n</div>"
        },
        "version": "7.2.000",
        "name": "EXM130_FHIR3",
        "status": "active",
        "experimental": true,
        "type": {
          "coding": [
            {
              "system": "http://hl7.org/fhir/codesystem-library-type.html",
              "code": "logic-library"
            }
          ]
        },
        "relatedArtifact": [
          {
            "type": "depends-on",
            "resource": {
              "reference": "Library/library-AdultOutpatientEncounters-FHIR3-1.1.000"
            }
          },
          {
            "type": "depends-on",
            "resource": {
              "reference": "Library/library-MATGlobalCommonFunctions-FHIR3-2.0.000"
            }
          },
          {
            "type": "depends-on",
            "resource": {
              "reference": "Library/library-Hospice-FHIR3-1.0.000"
            }
          },
          {
            "type": "depends-on",
            "resource": {
              "reference": "Library/library-FHIRHelpers-3.0.0"
            }
          },
          {
            "type": "depends-on",
            "resource": {
              "reference": "Library/library-SupplementalDataElements-FHIR3-1.0.0"
            }
          }
        ],
        "dataRequirement": [
          {
            "type": "Procedure",
            "codeFilter": [
              {
                "path": "code",
                "valueSetString": "http://cts.nlm.nih.gov/fhir/ValueSet/2.16.840.1.113883.3.464.1003.198.12.1010"
              }
            ]
          },
          {
            "type": "Procedure",
            "codeFilter": [
              {
                "path": "code",
                "valueSetString": "http://cts.nlm.nih.gov/fhir/ValueSet/2.16.840.1.113883.3.464.1003.108.12.1038"
              }
            ]
          },
          {
            "type": "Procedure",
            "codeFilter": [
              {
                "path": "code",
                "valueSetString": "http://cts.nlm.nih.gov/fhir/ValueSet/2.16.840.1.113883.3.464.1003.198.12.1019"
              }
            ]
          },
          {
            "type": "Condition",
            "codeFilter": [
              {
                "path": "code",
                "valueSetString": "http://cts.nlm.nih.gov/fhir/ValueSet/2.16.840.1.113883.3.464.1003.108.12.1001"
              }
            ]
          },
          {
            "type": "Observation",
            "codeFilter": [
              {
                "path": "code",
                "valueSetString": "http://cts.nlm.nih.gov/fhir/ValueSet/2.16.840.1.113883.3.464.1003.198.12.1011"
              }
            ]
          },
          {
            "type": "Observation",
            "codeFilter": [
              {
                "path": "code",
                "valueSetString": "http://cts.nlm.nih.gov/fhir/ValueSet/2.16.840.1.113883.3.464.1003.108.12.1039"
              }
            ]
          },
          {
            "type": "Procedure",
            "codeFilter": [
              {
                "path": "code",
                "valueSetString": "http://cts.nlm.nih.gov/fhir/ValueSet/2.16.840.1.113883.3.464.1003.108.12.1020"
              }
            ]
          }
        ],
        "content": [
          {
            "contentType": "application/elm+xml",
            "data": ""
          },
          {
            "contentType": "text/cql",
            "data": ""
          }
        ]
      },
      "request": {
        "method": "PUT",
        "url": "Library/library-EXM130-FHIR3-7.2.000"
      }
    },
    {
      "resource": {
        "resourceType": "ValueSet",
        "id": "2.16.840.1.114222.4.11.3591",
        "url": "http://cts.nlm.nih.gov/fhir/ValueSet/2.16.840.1.114222.4.11.3591",
        "identifier": [
          {
            "system": "urn:ietf:rfc:3986",
            "value": "2.16.840.1.114222.4.11.3591"
          }
        ],
        "version": "20180718",
        "name": "Payer",
        "title": "Payer",
        "status": "active",
        "publisher": "NLM",
        "compose": {
          "include": [
            {
              "system": "http://www.phdsc.org/standards/pdfs/SourceofPaymentTypologyVersion6FINALSeptember2015.pdf",
              "version": "8.0",
              "concept": [
                {
                  "code": "1",
                  "display": "MEDICARE"
                },
                {
                  "code": "11",
                  "display": "Medicare (Managed Care)"
                },
                {
                  "code": "111",
                  "display": "Medicare HMO"
                },
                {
                  "code": "112",
                  "display": "Medicare PPO"
                },
                {
                  "code": "113",
                  "display": "Medicare POS"
                },
                {
                  "code": "119",
                  "display": "Medicare Managed Care Other"
                },
                {
                  "code": "12",
                  "display": "Medicare (Non-managed Care)"
                },
                {
                  "code": "121",
                  "display": "Medicare FFS"
                },
                {
                  "code": "122",
                  "display": "Medicare Drug Benefit"
                },
                {
                  "code": "123",
                  "display": "Medicare Medical Savings Account (MSA)"
                },
                {
                  "code": "129",
                  "display": "Medicare Non-managed Care Other"
                },
                {
                  "code": "13",
                  "display": "Medicare Hospice"
                },
                {
                  "code": "14",
                  "display": "Dual Eligibility Medicare/Medicaid Organization"
                },
                {
                  "code": "19",
                  "display": "Medicare Other"
                },
                {
                  "code": "191",
                  "display": "Medicare Pharmacy Benefit Manager"
                },
                {
                  "code": "2",
                  "display": "MEDICAID"
                },
                {
                  "code": "21",
                  "display": "Medicaid (Managed Care)"
                },
                {
                  "code": "211",
                  "display": "Medicaid HMO"
                },
                {
                  "code": "212",
                  "display": "Medicaid PPO"
                },
                {
                  "code": "213",
                  "display": "Medicaid PCCM (Primary Care Case Management)"
                },
                {
                  "code": "219",
                  "display": "Medicaid Managed Care Other"
                },
                {
                  "code": "22",
                  "display": "Medicaid (Non-managed Care Plan)"
                },
                {
                  "code": "23",
                  "display": "Medicaid/SCHIP"
                },
                {
                  "code": "25",
                  "display": "Medicaid - Out of State"
                },
                {
                  "code": "26",
                  "display": "Medicaid -- Long Term Care"
                },
                {
                  "code": "29",
                  "display": "Medicaid Other"
                },
                {
                  "code": "291",
                  "display": "Medicaid Pharmacy Benefit Manager"
                },
                {
                  "code": "299",
                  "display": "Medicaid - Dental"
                },
                {
                  "code": "3",
                  "display": "OTHER GOVERNMENT (Federal/State/Local) (excluding Department of Corrections)"
                },
                {
                  "code": "31",
                  "display": "Department of Defense"
                },
                {
                  "code": "311",
                  "display": "TRICARE (CHAMPUS)"
                },
                {
                  "code": "3111",
                  "display": "TRICARE Prime--HMO"
                },
                {
                  "code": "3112",
                  "display": "TRICARE Extra--PPO"
                },
                {
                  "code": "3113",
                  "display": "TRICARE Standard - Fee For Service"
                },
                {
                  "code": "3114",
                  "display": "TRICARE For Life--Medicare Supplement"
                },
                {
                  "code": "3115",
                  "display": "TRICARE Reserve Select"
                },
                {
                  "code": "3116",
                  "display": "Uniformed Services Family Health Plan (USFHP) -- HMO"
                },
                {
                  "code": "3119",
                  "display": "Department of Defense - (other)"
                },
                {
                  "code": "312",
                  "display": "Military Treatment Facility"
                },
                {
                  "code": "3121",
                  "display": "Enrolled Prime--HMO"
                },
                {
                  "code": "3122",
                  "display": "Non-enrolled Space Available"
                },
                {
                  "code": "3123",
                  "display": "TRICARE For Life (TFL)"
                },
                {
                  "code": "313",
                  "display": "Dental --Stand Alone"
                },
                {
                  "code": "32",
                  "display": "Department of Veterans Affairs"
                },
                {
                  "code": "321",
                  "display": "Veteran care--Care provided to Veterans"
                },
                {
                  "code": "3211",
                  "display": "Direct Care--Care provided in VA facilities"
                },
                {
                  "code": "3212",
                  "display": "Indirect Care--Care provided outside VA facilities"
                },
                {
                  "code": "32121",
                  "display": "Fee Basis"
                },
                {
                  "code": "32122",
                  "display": "Foreign Fee/Foreign Medical Program (FMP)"
                },
                {
                  "code": "32123",
                  "display": "Contract Nursing Home/Community Nursing Home"
                },
                {
                  "code": "32124",
                  "display": "State Veterans Home"
                },
                {
                  "code": "32125",
                  "display": "Sharing Agreements"
                },
                {
                  "code": "32126",
                  "display": "Other Federal Agency"
                },
                {
                  "code": "32127",
                  "display": "Dental Care"
                },
                {
                  "code": "32128",
                  "display": "Vision Care"
                },
                {
                  "code": "322",
                  "display": "Non-veteran care"
                },
                {
                  "code": "3221",
                  "display": "Civilian Health and Medical Program for the VA (CHAMPVA)"
                },
                {
                  "code": "3222",
                  "display": "Spina Bifida Health Care Program (SB)"
                },
                {
                  "code": "3223",
                  "display": "Children of Women Vietnam Veterans (CWVV)"
                },
                {
                  "code": "3229",
                  "display": "Other non-veteran care"
                },
                {
                  "code": "33",
                  "display": "Indian Health Service or Tribe"
                },
                {
                  "code": "331",
                  "display": "Indian Health Service -- Regular"
                },
                {
                  "code": "332",
                  "display": "Indian Health Service -- Contract"
                },
                {
                  "code": "333",
                  "display": "Indian Health Service - Managed Care"
                },
                {
                  "code": "334",
                  "display": "Indian Tribe - Sponsored Coverage"
                },
                {
                  "code": "34",
                  "display": "HRSA Program"
                },
                {
                  "code": "341",
                  "display": "Title V (MCH Block Grant)"
                },
                {
                  "code": "342",
                  "display": "Migrant Health Program"
                },
                {
                  "code": "343",
                  "display": "Ryan White Act"
                },
                {
                  "code": "349",
                  "display": "Other"
                },
                {
                  "code": "35",
                  "display": "Black Lung"
                },
                {
                  "code": "36",
                  "display": "State Government"
                },
                {
                  "code": "361",
                  "display": "State SCHIP program (codes for individual states)"
                },
                {
                  "code": "362",
                  "display": "Specific state programs (list/ local code)"
                },
                {
                  "code": "369",
                  "display": "State, not otherwise specified (other state)"
                },
                {
                  "code": "37",
                  "display": "Local Government"
                },
                {
                  "code": "371",
                  "display": "Local - Managed care"
                },
                {
                  "code": "3711",
                  "display": "HMO"
                },
                {
                  "code": "3712",
                  "display": "PPO"
                },
                {
                  "code": "3713",
                  "display": "POS"
                },
                {
                  "code": "372",
                  "display": "FFS/Indemnity"
                },
                {
                  "code": "379",
                  "display": "Local, not otherwise specified (other local, county)"
                },
                {
                  "code": "38",
                  "display": "Other Government (Federal, State, Local not specified)"
                },
                {
                  "code": "381",
                  "display": "Federal, State, Local not specified managed care"
                },
                {
                  "code": "3811",
                  "display": "Federal, State, Local not specified - HMO"
                },
                {
                  "code": "3812",
                  "display": "Federal, State, Local not specified - PPO"
                },
                {
                  "code": "3813",
                  "display": "Federal, State, Local not specified - POS"
                },
                {
                  "code": "3819",
                  "display": "Federal, State, Local not specified - not specified managed care"
                },
                {
                  "code": "382",
                  "display": "Federal, State, Local not specified - FFS"
                },
                {
                  "code": "389",
                  "display": "Federal, State, Local not specified - Other"
                },
                {
                  "code": "39",
                  "display": "Other Federal"
                },
                {
                  "code": "391",
                  "display": "Federal Employee Health Plan - Use when known"
                },
                {
                  "code": "4",
                  "display": "DEPARTMENTS OF CORRECTIONS"
                },
                {
                  "code": "41",
                  "display": "Corrections Federal"
                },
                {
                  "code": "42",
                  "display": "Corrections State"
                },
                {
                  "code": "43",
                  "display": "Corrections Local"
                },
                {
                  "code": "44",
                  "display": "Corrections Unknown Level"
                },
                {
                  "code": "5",
                  "display": "PRIVATE HEALTH INSURANCE"
                },
                {
                  "code": "51",
                  "display": "Managed Care (Private)"
                },
                {
                  "code": "511",
                  "display": "Commercial Managed Care - HMO"
                },
                {
                  "code": "512",
                  "display": "Commercial Managed Care - PPO"
                },
                {
                  "code": "513",
                  "display": "Commercial Managed Care - POS"
                },
                {
                  "code": "514",
                  "display": "Exclusive Provider Organization"
                },
                {
                  "code": "515",
                  "display": "Gatekeeper PPO (GPPO)"
                },
                {
                  "code": "516",
                  "display": "Commercial Managed Care - Pharmacy Benefit Manager"
                },
                {
                  "code": "517",
                  "display": "Commercial Managed Care - Dental"
                },
                {
                  "code": "519",
                  "display": "Managed Care, Other (non HMO)"
                },
                {
                  "code": "52",
                  "display": "Private Health Insurance - Indemnity"
                },
                {
                  "code": "521",
                  "display": "Commercial Indemnity"
                },
                {
                  "code": "522",
                  "display": "Self-insured (ERISA) Administrative Services Only (ASO) plan"
                },
                {
                  "code": "523",
                  "display": "Medicare supplemental policy (as second payer)"
                },
                {
                  "code": "524",
                  "display": "Indemnity Insurance - Dental"
                },
                {
                  "code": "529",
                  "display": "Private health insurance--other commercial Indemnity"
                },
                {
                  "code": "53",
                  "display": "Managed Care (private) or private health insurance (indemnity), not otherwise specified"
                },
                {
                  "code": "54",
                  "display": "Organized Delivery System"
                },
                {
                  "code": "55",
                  "display": "Small Employer Purchasing Group"
                },
                {
                  "code": "56",
                  "display": "Specialized Stand Alone Plan"
                },
                {
                  "code": "561",
                  "display": "Dental"
                },
                {
                  "code": "562",
                  "display": "Vision"
                },
                {
                  "code": "59",
                  "display": "Other Private Insurance"
                },
                {
                  "code": "6",
                  "display": "BLUE CROSS/BLUE SHIELD"
                },
                {
                  "code": "61",
                  "display": "BC Managed Care"
                },
                {
                  "code": "611",
                  "display": "BC Managed Care -- HMO"
                },
                {
                  "code": "612",
                  "display": "BC Managed Care -- PPO"
                },
                {
                  "code": "613",
                  "display": "BC Managed Care -- POS"
                },
                {
                  "code": "614",
                  "display": "BC Managed Care - Dental"
                },
                {
                  "code": "619",
                  "display": "BC Managed Care -- Other"
                },
                {
                  "code": "62",
                  "display": "BC Insurance Indemnity"
                },
                {
                  "code": "621",
                  "display": "BC Indemnity"
                },
                {
                  "code": "622",
                  "display": "BC Self-insured (ERISA) Administrative Services Only (ASO)Plan"
                },
                {
                  "code": "623",
                  "display": "BC Medicare Supplemental Plan"
                },
                {
                  "code": "629",
                  "display": "BC Indemnity - Dental"
                },
                {
                  "code": "7",
                  "display": "MANAGED CARE, UNSPECIFIED (to be used only if one can't distinguish public from private)"
                },
                {
                  "code": "71",
                  "display": "HMO"
                },
                {
                  "code": "72",
                  "display": "PPO"
                },
                {
                  "code": "73",
                  "display": "POS"
                },
                {
                  "code": "79",
                  "display": "Other Managed Care"
                },
                {
                  "code": "8",
                  "display": "NO PAYMENT from an Organization/Agency/Program/Private Payer Listed"
                },
                {
                  "code": "81",
                  "display": "Self-pay (Includes applicants for insurance and Medicaid applicants)"
                },
                {
                  "code": "82",
                  "display": "No Charge"
                },
                {
                  "code": "821",
                  "display": "Charity"
                },
                {
                  "code": "822",
                  "display": "Professional Courtesy"
                },
                {
                  "code": "823",
                  "display": "Research/Clinical Trial"
                },
                {
                  "code": "83",
                  "display": "Refusal to Pay/Bad Debt"
                },
                {
                  "code": "84",
                  "display": "Hill Burton Free Care"
                },
                {
                  "code": "85",
                  "display": "Research/Donor"
                },
                {
                  "code": "89",
                  "display": "No Payment, Other"
                },
                {
                  "code": "9",
                  "display": "MISCELLANEOUS/OTHER"
                },
                {
                  "code": "91",
                  "display": "Foreign National"
                },
                {
                  "code": "92",
                  "display": "Other (Non-government)"
                },
                {
                  "code": "93",
                  "display": "Disability Insurance"
                },
                {
                  "code": "94",
                  "display": "Long-term Care Insurance"
                },
                {
                  "code": "95",
                  "display": "Worker's Compensation"
                },
                {
                  "code": "951",
                  "display": "Worker's Comp HMO"
                },
                {
                  "code": "953",
                  "display": "Worker's Comp Fee-for-Service"
                },
                {
                  "code": "954",
                  "display": "Worker's Comp Other Managed Care"
                },
                {
                  "code": "959",
                  "display": "Worker's Comp, Other unspecified"
                },
                {
                  "code": "96",
                  "display": "Auto Insurance (includes no fault)"
                },
                {
                  "code": "97",
                  "display": "Legal Liability / Liability Insurance"
                },
                {
                  "code": "98",
                  "display": "Other specified but not otherwise classifiable (includes Hospice - Unspecified plan)"
                },
                {
                  "code": "99",
                  "display": "No Typology Code available for payment source"
                },
                {
                  "code": "9999",
                  "display": "Unavailable / No Payer Specified / Blank"
                }
              ]
            }
          ]
        }
      },
      "request": {
        "method": "PUT",
        "url": "ValueSet/2.16.840.1.114222.4.11.3591"
      }
    },
    {
      "resource": {
        "resourceType": "ValueSet",
        "id": "2.16.840.1.113883.3.464.1003.198.12.1019",
        "url": "http://cts.nlm.nih.gov/fhir/ValueSet/2.16.840.1.113883.3.464.1003.198.12.1019",
        "identifier": [
          {
            "system": "urn:ietf:rfc:3986",
            "value": "2.16.840.1.113883.3.464.1003.198.12.1019"
          }
        ],
        "version": "20171222",
        "name": "TotalColectomy",
        "title": "Total Colectomy",
        "status": "active",
        "publisher": "NLM",
        "compose": {
          "include": [
            {
              "system": "http://www.ama-assn.org/go/cpt",
              "version": "2006",
              "concept": [
                {
                  "code": "44152",
                  "display": "Colectomy, total, abdominal, without proctectomy; with rectal mucosectomy, ileoanal anastomosis, with or without loop ileostomy"
                },
                {
                  "code": "44153",
                  "display": "Colectomy, total, abdominal, without proctectomy; with rectal mucosectomy, ileoanal anastomosis, creation of ileal reservoir (S or J), with or without loop ileostomy"
                }
              ]
            },
            {
              "system": "http://www.ama-assn.org/go/cpt",
              "version": "2018",
              "concept": [
                {
                  "code": "44150",
                  "display": "Colectomy, total, abdominal, without proctectomy; with ileostomy or ileoproctostomy"
                },
                {
                  "code": "44151",
                  "display": "Colectomy, total, abdominal, without proctectomy; with continent ileostomy"
                },
                {
                  "code": "44155",
                  "display": "Colectomy, total, abdominal, with proctectomy; with ileostomy"
                },
                {
                  "code": "44156",
                  "display": "Colectomy, total, abdominal, with proctectomy; with continent ileostomy"
                },
                {
                  "code": "44157",
                  "display": "Colectomy, total, abdominal, with proctectomy; with ileoanal anastomosis, includes loop ileostomy, and rectal mucosectomy, when performed"
                },
                {
                  "code": "44158",
                  "display": "Colectomy, total, abdominal, with proctectomy; with ileoanal anastomosis, creation of ileal reservoir (S or J), includes loop ileostomy, and rectal mucosectomy, when performed"
                },
                {
                  "code": "44210",
                  "display": "Laparoscopy, surgical; colectomy, total, abdominal, without proctectomy, with ileostomy or ileoproctostomy"
                },
                {
                  "code": "44211",
                  "display": "Laparoscopy, surgical; colectomy, total, abdominal, with proctectomy, with ileoanal anastomosis, creation of ileal reservoir (S or J), with loop ileostomy, includes rectal mucosectomy, when performed"
                },
                {
                  "code": "44212",
                  "display": "Laparoscopy, surgical; colectomy, total, abdominal, with proctectomy, with ileostomy"
                }
              ]
            },
            {
              "system": "http://snomed.info/sct",
              "version": "2018-03",
              "concept": [
                {
                  "code": "26390003",
                  "display": "Total colectomy (procedure)"
                },
                {
                  "code": "303401008",
                  "display": "Parks panproctocolectomy, anastomosis of ileum to anus and creation of pouch (procedure)"
                },
                {
                  "code": "307666008",
                  "display": "Total colectomy and ileostomy (procedure)"
                },
                {
                  "code": "307667004",
                  "display": "Total colectomy, ileostomy and rectal mucous fistula (procedure)"
                },
                {
                  "code": "307669001",
                  "display": "Total colectomy, ileostomy and closure of rectal stump (procedure)"
                },
                {
                  "code": "31130001",
                  "display": "Total abdominal colectomy with proctectomy and ileostomy (procedure)"
                },
                {
                  "code": "36192008",
                  "display": "Total abdominal colectomy with ileoproctostomy (procedure)"
                },
                {
                  "code": "44751009",
                  "display": "Total abdominal colectomy with proctectomy and continent ileostomy (procedure)"
                },
                {
                  "code": "456004",
                  "display": "Total abdominal colectomy with ileostomy (procedure)"
                },
                {
                  "code": "80294005",
                  "display": "Total abdominal colectomy with rectal mucosectomy and ileoanal anastomosis (procedure)"
                }
              ]
            }
          ]
        }
      },
      "request": {
        "method": "PUT",
        "url": "ValueSet/2.16.840.1.113883.3.464.1003.198.12.1019"
      }
    },
    {
      "resource": {
        "resourceType": "Library",
        "id": "library-FHIRHelpers-3.0.0",
        "text": {
          "status": "generated",
          "div": "<div xmlns=\"http://www.w3.org/1999/xhtml\"><table class=\"grid dict\"><tr><th scope=\"row\"><b>Id: </b></th><td style=\"padding-left: 25px; padding-right: 25px;\">library-FHIRHelpers-3.0.0</td></tr><tr><th scope=\"row\"><b>Type: </b></th><td style=\"padding-right: 25px;\"><span><br/><span><span style=\"padding-left: 25px;\"><b>system: </b><span>http://hl7.org/fhir/codesystem-library-type.html</span><br/></span><span style=\"padding-left: 25px;\"><b>code: </b><span>logic-library</span></span></span></span></td></tr><tr><th scope=\"row\"><b>Version: </b></th><td style=\"padding-left: 25px; padding-right: 25px;\">3.0.0</td></tr><tr><th scope=\"row\"><b>Status: </b></th><td style=\"padding-left: 25px; padding-right: 25px;\">active</td></tr>    <!-- Filter down to human readable content --><tr style=\"vertical-align: top;\"><th scope=\"row\"><b>Content: </b></th><td style=\"padding-left: 25px; padding-right: 25px;\"><b>type: </b><span>text/cql</span></td></tr><tr><td colspan=\"2\" style=\"padding-left: 25px; padding-right: 25px;\"><pre><code class=\"language-cql\">library FHIRHelpers version '3.0.0'\n\nusing FHIR version '3.0.0'\n\ndefine function ToInterval(period FHIR.Period):\n    if period is null then\n        null\n    else\n        Interval[period.\"start\".value, period.\"end\".value]\n\ndefine function ToQuantity(quantity FHIR.Quantity):\n    if quantity is null then\n        null\n    else\n        System.Quantity { value: quantity.value.value, unit: quantity.unit.value }\n\ndefine function ToInterval(range FHIR.Range):\n    if range is null then\n        null\n    else\n        Interval[ToQuantity(range.low), ToQuantity(range.high)]\n\ndefine function ToCode(coding FHIR.Coding):\n    if coding is null then\n        null\n    else\n        System.Code {\n          code: coding.code.value,\n          system: coding.system.value,\n          version: coding.version.value,\n          display: coding.display.value\n        }\n\ndefine function ToConcept(concept FHIR.CodeableConcept):\n    if concept is null then\n         null\n    else\n        System.Concept {\n            codes: concept.coding C return ToCode(C),\n            display: concept.text.value\n        }\n\ndefine function ToString(value FHIR.uuid): value.value\ndefine function ToString(value FHIR.TestScriptRequestMethodCode): value.value\ndefine function ToString(value FHIR.ProvenanceEntityRole): value.value\ndefine function ToString(value FHIR.UnitsOfTime): value.value\ndefine function ToString(value FHIR.AddressType): value.value\ndefine function ToString(value FHIR.AllergyIntoleranceCategory): value.value\ndefine function ToString(value FHIR.SpecimenStatus): value.value\ndefine function ToString(value FHIR.RestfulCapabilityMode): value.value\ndefine function ToString(value FHIR.DetectedIssueSeverity): value.value\ndefine function ToString(value FHIR.IssueSeverity): value.value\ndefine function ToString(value FHIR.CareTeamStatus): value.value\ndefine function ToString(value FHIR.DataElementStringency): value.value\ndefine function ToString(value FHIR.VisionEyes): value.value\ndefine function ToString(value FHIR.EncounterStatus): value.value\ndefine function ToString(value FHIR.StructureDefinitionKind): value.value\ndefine function ToString(value FHIR.PublicationStatus): value.value\ndefine function ToString(value FHIR.ConsentDataMeaning): value.value\ndefine function ToString(value FHIR.StructureMapSourceListMode): value.value\ndefine function ToString(value FHIR.RequestStatus): value.value\ndefine function ToString(value FHIR.QuestionnaireResponseStatus): value.value\ndefine function ToString(value FHIR.SearchComparator): value.value\ndefine function ToString(value FHIR.ChargeItemStatus): value.value\ndefine function ToString(value FHIR.ActionParticipantType): value.value\ndefine function ToString(value FHIR.AllergyIntoleranceType): value.value\ndefine function ToString(value FHIR.DocumentRelationshipType): value.value\ndefine function ToString(value FHIR.AllergyIntoleranceClinicalStatus): value.value\ndefine function ToString(value FHIR.CarePlanActivityStatus): value.value\ndefine function ToString(value FHIR.ActionList): value.value\ndefine function ToString(value FHIR.ParticipationStatus): value.value\ndefine function ToString(value FHIR.TestReportResult): value.value\ndefine function ToString(value FHIR.ConceptMapGroupUnmappedMode): value.value\ndefine function ToDateTime(value FHIR.instant): value.value\ndefine function ToDateTime(value FHIR.dateTime): value.value\ndefine function ToDate(value FHIR.date): value.value\ndefine function ToString(value FHIR.DocumentMode): value.value\ndefine function ToString(value FHIR.AssertionOperatorType): value.value\ndefine function ToString(value FHIR.DaysOfWeek): value.value\ndefine function ToString(value FHIR.IssueType): value.value\ndefine function ToString(value FHIR.ContentType): value.value\ndefine function ToString(value FHIR.StructureMapContextType): value.value\ndefine function ToString(value FHIR.FamilyHistoryStatus): value.value\ndefine function ToInteger(value FHIR.positiveInt): value.value\ndefine function ToString(value FHIR.ClinicalImpressionStatus): value.value\ndefine function ToString(value FHIR.AssertionResponseTypes): value.value\ndefine function ToString(value FHIR.RequestIntent): value.value\ndefine function ToString(value FHIR.NarrativeStatus): value.value\ndefine function ToString(value FHIR.MeasmntPrinciple): value.value\ndefine function ToString(value FHIR.ConsentExceptType): value.value\ndefine function ToString(value FHIR.string): value.value\ndefine function ToString(value FHIR.ActionRequiredBehavior): value.value\ndefine function ToString(value FHIR.EndpointStatus): value.value\ndefine function ToString(value FHIR.GuidePageKind): value.value\ndefine function ToString(value FHIR.GuideDependencyType): value.value\ndefine function ToString(value FHIR.ResourceVersionPolicy): value.value\ndefine function ToString(value FHIR.MedicationRequestStatus): value.value\ndefine function ToString(value FHIR.MedicationAdministrationStatus): value.value\ndefine function ToString(value FHIR.ActionCardinalityBehavior): value.value\ndefine function ToString(value FHIR.MedicationRequestIntent): value.value\ndefine function ToString(value FHIR.NamingSystemIdentifierType): value.value\ndefine function ToString(value FHIR.ImmunizationStatusCodes): value.value\ndefine function ToString(value FHIR.AccountStatus): value.value\ndefine function ToString(value FHIR.MedicationDispenseStatus): value.value\ndefine function ToString(value FHIR.ConfidentialityClassification): value.value\ndefine function ToString(value FHIR.IdentifierUse): value.value\ndefine function ToString(value FHIR.DigitalMediaType): value.value\ndefine function ToString(value FHIR.StructureMapTargetListMode): value.value\ndefine function ToString(value FHIR.TestReportParticipantType): value.value\ndefine function ToString(value FHIR.BindingStrength): value.value\ndefine function ToString(value FHIR.RequestPriority): value.value\ndefine function ToString(value FHIR.ParticipantRequired): value.value\ndefine function ToString(value FHIR.DiscriminatorType): value.value\ndefine function ToString(value FHIR.XPathUsageType): value.value\ndefine function ToString(value FHIR.StructureMapInputMode): value.value\ndefine function ToString(value FHIR.InstanceAvailability): value.value\ndefine function ToString(value FHIR.id): value.value\ndefine function ToString(value FHIR.LinkageType): value.value\ndefine function ToString(value FHIR.ReferenceHandlingPolicy): value.value\ndefine function ToString(value FHIR.MedicationStatus): value.value\ndefine function ToString(value FHIR.FilterOperator): value.value\ndefine function ToString(value FHIR.NamingSystemType): value.value\ndefine function ToString(value FHIR.ResearchStudyStatus): value.value\ndefine function ToString(value FHIR.ExtensionContext): value.value\ndefine function ToString(value FHIR.FHIRDefinedType): value.value\ndefine function ToString(value FHIR.AuditEventOutcome): value.value\ndefine function ToString(value FHIR.ActionRelationshipType): value.value\ndefine function ToString(value FHIR.ConstraintSeverity): value.value\ndefine function ToString(value FHIR.EventCapabilityMode): value.value\ndefine function ToString(value FHIR.ContractResourceStatusCodes): value.value\ndefine function ToString(value FHIR.ResearchSubjectStatus): value.value\ndefine function ToString(value FHIR.UDIEntryType): value.value\ndefine function ToString(value FHIR.DeviceMetricCategory): value.value\ndefine function ToString(value FHIR.TestReportActionResult): value.value\ndefine function ToString(value FHIR.StructureMapTransform): value.value\ndefine function ToString(value FHIR.ResponseType): value.value\ndefine function ToDecimal(value FHIR.decimal): value.value\ndefine function ToString(value FHIR.AggregationMode): value.value\ndefine function ToString(value FHIR.CapabilityStatementKind): value.value\ndefine function ToString(value FHIR.AllergyIntoleranceVerificationStatus): value.value\ndefine function ToString(value FHIR.EventTiming): value.value\ndefine function ToString(value FHIR.GoalStatus): value.value\ndefine function ToString(value FHIR.SearchParamType): value.value\ndefine function ToString(value FHIR.SystemRestfulInteraction): value.value\ndefine function ToString(value FHIR.ActionGroupingBehavior): value.value\ndefine function ToString(value FHIR.StructureMapModelMode): value.value\ndefine function ToString(value FHIR.TaskStatus): value.value\ndefine function ToString(value FHIR.AdverseEventCausality): value.value\ndefine function ToString(value FHIR.SubscriptionChannelType): value.value\ndefine function ToString(value FHIR.GraphCompartmentRule): value.value\ndefine function ToString(value FHIR.AssertionDirectionType): value.value\ndefine function ToString(value FHIR.CarePlanIntent): value.value\ndefine function ToString(value FHIR.SlicingRules): value.value\ndefine function ToString(value FHIR.ExplanationOfBenefitStatus): value.value\ndefine function ToString(value FHIR.ConsentState): value.value\ndefine function ToString(value FHIR.AdverseEventCategory): value.value\ndefine function ToString(value FHIR.LinkType): value.value\ndefine function ToString(value FHIR.AllergyIntoleranceCriticality): value.value\ndefine function ToString(value FHIR.MedicationRequestPriority): value.value\ndefine function ToString(value FHIR.ConceptMapEquivalence): value.value\ndefine function ToString(value FHIR.FHIRAllTypes): value.value\ndefine function ToString(value FHIR.PropertyRepresentation): value.value\ndefine function ToString(value FHIR.AuditEventAction): value.value\ndefine function ToString(value FHIR.TriggerType): value.value\ndefine function ToString(value FHIR.SearchModifierCode): value.value\ndefine function ToString(value FHIR.CompositionStatus): value.value\ndefine function ToString(value FHIR.AppointmentStatus): value.value\ndefine function ToString(value FHIR.MessageSignificanceCategory): value.value\ndefine function ToString(value FHIR.EventStatus): value.value\ndefine function ToString(value FHIR.OperationParameterUse): value.value\ndefine function ToString(value FHIR.ListMode): value.value\ndefine function ToString(value FHIR.ActionConditionKind): value.value\ndefine function ToString(value FHIR.ObservationStatus): value.value\ndefine function ToString(value FHIR.qualityType): value.value\ndefine function ToString(value FHIR.AdministrativeGender): value.value\ndefine function ToString(value FHIR.ResourceType): value.value\ndefine function ToString(value FHIR.QuestionnaireItemType): value.value\ndefine function ToBoolean(value FHIR.boolean): value.value\ndefine function ToString(value FHIR.StructureMapGroupTypeMode): value.value\ndefine function ToString(value FHIR.DeviceMetricCalibrationType): value.value\ndefine function ToString(value FHIR.code): value.value\ndefine function ToString(value FHIR.SupplyRequestStatus): value.value\ndefine function ToString(value FHIR.ActionSelectionBehavior): value.value\ndefine function ToString(value FHIR.EncounterLocationStatus): value.value\ndefine function ToString(value FHIR.SupplyDeliveryStatus): value.value\ndefine function ToString(value FHIR.DiagnosticReportStatus): value.value\ndefine function ToString(value FHIR.FlagStatus): value.value\ndefine function ToString(value FHIR.CarePlanStatus): value.value\ndefine function ToString(value FHIR.ConditionClinicalStatusCodes): value.value\ndefine function ToString(value FHIR.ListStatus): value.value\ndefine function Tobase64Binary(value FHIR.base64Binary): value.value\ndefine function ToString(value FHIR.DeviceUseStatementStatus): value.value\ndefine function ToString(value FHIR.AuditEventAgentNetworkType): value.value\ndefine function ToString(value FHIR.AddressUse): value.value\ndefine function ToString(value FHIR.ConditionalDeleteStatus): value.value\ndefine function ToString(value FHIR.ContactPointUse): value.value\ndefine function ToString(value FHIR.DeviceMetricOperationalStatus): value.value\ndefine function ToString(value FHIR.NutritionOrderStatus): value.value\ndefine function ToString(value FHIR.uri): value.value\ndefine function ToString(value FHIR.ContributorType): value.value\ndefine function ToString(value FHIR.ReferenceVersionRules): value.value\ndefine function ToString(value FHIR.Use): value.value\ndefine function ToString(value FHIR.IdentityAssuranceLevel): value.value\ndefine function ToString(value FHIR.MeasureReportStatus): value.value\ndefine function ToString(value FHIR.DeviceMetricColor): value.value\ndefine function ToString(value FHIR.SearchEntryMode): value.value\ndefine function ToTime(value FHIR.time): value.value\ndefine function ToString(value FHIR.ConditionalReadStatus): value.value\ndefine function ToString(value FHIR.ConditionVerificationStatus): value.value\ndefine function ToString(value FHIR.AllergyIntoleranceSeverity): value.value\ndefine function ToString(value FHIR.FinancialResourceStatusCodes): value.value\ndefine function ToString(value FHIR.OperationKind): value.value\ndefine function ToString(value FHIR.ObservationRelationshipType): value.value\ndefine function ToInteger(value FHIR.unsignedInt): value.value\ndefine function ToString(value FHIR.NameUse): value.value\ndefine function ToString(value FHIR.SubscriptionStatus): value.value\ndefine function ToString(value FHIR.DocumentReferenceStatus): value.value\ndefine function ToString(value FHIR.LocationMode): value.value\ndefine function ToInteger(value FHIR.integer): value.value\ndefine function ToString(value FHIR.repositoryType): value.value\ndefine function ToString(value FHIR.LocationStatus): value.value\ndefine function ToString(value FHIR.FHIRSubstanceStatus): value.value\ndefine function ToString(value FHIR.UnknownContentCode): value.value\ndefine function ToString(value FHIR.NoteType): value.value\ndefine function ToString(value FHIR.TestReportStatus): value.value\ndefine function ToString(value FHIR.HTTPVerb): value.value\ndefine function ToString(value FHIR.CodeSystemContentMode): value.value\ndefine function ToString(value FHIR.EpisodeOfCareStatus): value.value\ndefine function ToString(value FHIR.RemittanceOutcome): value.value\ndefine function ToString(value FHIR.FHIRDeviceStatus): value.value\ndefine function ToString(value FHIR.ContactPointSystem): value.value\ndefine function ToString(value FHIR.SlotStatus): value.value\ndefine function ToString(value FHIR.PropertyType): value.value\ndefine function ToString(value FHIR.markdown): value.value\ndefine function ToString(value FHIR.TypeDerivationRule): value.value\ndefine function ToString(value FHIR.MedicationStatementStatus): value.value\ndefine function ToString(value FHIR.GuidanceResponseStatus): value.value\ndefine function ToString(value FHIR.QuantityComparator): value.value\ndefine function ToString(value FHIR.RelatedArtifactType): value.value\ndefine function ToString(value FHIR.oid): value.value\ndefine function ToString(value FHIR.MeasureReportType): value.value\ndefine function ToString(value FHIR.ActionPrecheckBehavior): value.value\ndefine function ToString(value FHIR.SampledDataDataType): value.value\ndefine function ToString(value FHIR.MedicationStatementTaken): value.value\ndefine function ToString(value FHIR.CompartmentType): value.value\ndefine function ToString(value FHIR.CompositionAttestationMode): value.value\ndefine function ToString(value FHIR.DeviceMetricCalibrationState): value.value\ndefine function ToString(value FHIR.GroupType): value.value\ndefine function ToString(value FHIR.TypeRestfulInteraction): value.value\ndefine function ToString(value FHIR.CodeSystemHierarchyMeaning): value.value\ndefine function ToString(value FHIR.VisionBase): value.value\ndefine function ToString(value FHIR.BundleType): value.value\ndefine function ToString(value FHIR.SystemVersionProcessingMode): value.value\n</code></pre>\r\n                    \r\n                    \r\n                </td>\r\n            </tr>\r\n        \r\n    </table>\r\n</div>"
        },
        "version": "3.0.0",
        "name": "FHIRHelpers",
        "status": "active",
        "experimental": true,
        "type": {
          "coding": [
            {
              "system": "http://hl7.org/fhir/codesystem-library-type.html",
              "code": "logic-library"
            }
          ]
        },
        "content": [
          {
            "contentType": "application/elm+xml",
            "data": ""
          },
          {
            "contentType": "text/cql",
            "data": ""
          }
        ]
      },
      "request": {
        "method": "PUT",
        "url": "Library/library-FHIRHelpers-3.0.0"
      }
    },
    {
      "resource": {
        "resourceType": "Procedure",
        "id": "denom-EXM130-FHIR3-2",
        "meta": {
          "profile": [
            "http://hl7.org/fhir/us/core/StructureDefinition/us-core-procedure"
          ]
        },
        "status": "completed",
        "code": {
          "coding": [
            {
              "system": "http://www.ama-assn.org/go/cpt",
              "code": "44393",
              "display": "Colonoscopy through stoma; with ablation of tumor(s), polyp(s), or other lesion(s) not amenable to removal by hot biopsy forceps, bipolar cautery or snare technique"
            }
          ]
        },
        "subject": {
          "reference": "Patient/denom-EXM130-FHIR3"
        },
        "performedPeriod": {
          "start": "2009-12-30T12:00:00",
          "end": "2009-12-30T13:00:00"
        }
      },
      "request": {
        "method": "PUT",
        "url": "Procedure/denom-EXM130-FHIR3-2"
      }
    },
    {
      "resource": {
        "resourceType": "ValueSet",
        "id": "2.16.840.1.113883.3.464.1003.108.12.1039",
        "url": "http://cts.nlm.nih.gov/fhir/ValueSet/2.16.840.1.113883.3.464.1003.108.12.1039",
        "identifier": [
          {
            "system": "urn:ietf:rfc:3986",
            "value": "2.16.840.1.113883.3.464.1003.108.12.1039"
          }
        ],
        "version": "20171219",
        "name": "FITDNA",
        "title": "FIT DNA",
        "status": "active",
        "publisher": "NLM",
        "compose": {
          "include": [
            {
              "system": "http://loinc.org",
              "version": "2.64",
              "concept": [
                {
                  "code": "77353-1",
                  "display": "Noninvasive colorectal cancer DNA and occult blood screening [Interpretation] in Stool Narrative"
                },
                {
                  "code": "77354-9",
                  "display": "Noninvasive colorectal cancer DNA and occult blood screening [Presence] in Stool"
                }
              ]
            }
          ]
        }
      },
      "request": {
        "method": "PUT",
        "url": "ValueSet/2.16.840.1.113883.3.464.1003.108.12.1039"
      }
    },
    {
      "resource": {
        "resourceType": "Encounter",
        "id": "numer-EXM130-FHIR3-4",
        "meta": {
          "profile": [
            "http://hl7.org/fhir/us/core/StructureDefinition/us-core-encounter"
          ]
        },
        "status": "finished",
        "class": {
          "system": "http://terminology.hl7.org/CodeSystem/v3-ActCode",
          "code": "AMB",
          "display": "ambulatory"
        },
        "type": [
          {
            "coding": [
              {
                "system": "http://www.ama-assn.org/go/cpt",
                "code": "99201",
                "display": "Office or other outpatient visit for the evaluation and management of a new patient, which requires these 3 key components: A problem focused history; A problem focused examination; Straightforward medical decision making. Counseling and/or coordination of care with other physicians, other qualified health care professionals, or agencies are provided consistent with the nature of the problem(s) and the patient's and/or family's needs. Usually, the presenting problem(s) are self limited or minor. Typically, 10 minutes are spent face-to-face with the patient and/or family."
              }
            ]
          }
        ],
        "subject": {
          "reference": "Patient/numer-EXM130-FHIR3"
        },
        "period": {
          "start": "2019-05-30T00:00:00.0",
          "end": "2019-05-31T00:00:00.0"
        }
      },
      "request": {
        "method": "PUT",
        "url": "Encounter/numer-EXM130-FHIR3-4"
      }
    },
    {
      "resource": {
        "resourceType": "ValueSet",
        "id": "2.16.840.1.113883.3.464.1003.198.12.1010",
        "url": "http://cts.nlm.nih.gov/fhir/ValueSet/2.16.840.1.113883.3.464.1003.198.12.1010",
        "identifier": [
          {
            "system": "urn:ietf:rfc:3986",
            "value": "2.16.840.1.113883.3.464.1003.198.12.1010"
          }
        ],
        "version": "20171219",
        "name": "FlexibleSigmoidoscopy",
        "title": "Flexible Sigmoidoscopy",
        "status": "active",
        "publisher": "NLM",
        "compose": {
          "include": [
            {
              "system": "http://www.ama-assn.org/go/cpt",
              "version": "2014",
              "concept": [
                {
                  "code": "45339",
                  "display": "Sigmoidoscopy, flexible; with ablation of tumor(s), polyp(s), or other lesion(s) not amenable to removal by hot biopsy forceps, bipolar cautery or snare technique"
                },
                {
                  "code": "45345",
                  "display": "Sigmoidoscopy, flexible; with transendoscopic stent placement (includes predilation)"
                }
              ]
            },
            {
              "system": "http://www.ama-assn.org/go/cpt",
              "version": "2018",
              "concept": [
                {
                  "code": "45330",
                  "display": "Sigmoidoscopy, flexible; diagnostic, including collection of specimen(s) by brushing or washing, when performed (separate procedure)"
                },
                {
                  "code": "45331",
                  "display": "Sigmoidoscopy, flexible; with biopsy, single or multiple"
                },
                {
                  "code": "45332",
                  "display": "Sigmoidoscopy, flexible; with removal of foreign body(s)"
                },
                {
                  "code": "45333",
                  "display": "Sigmoidoscopy, flexible; with removal of tumor(s), polyp(s), or other lesion(s) by hot biopsy forceps"
                },
                {
                  "code": "45334",
                  "display": "Sigmoidoscopy, flexible; with control of bleeding, any method"
                },
                {
                  "code": "45335",
                  "display": "Sigmoidoscopy, flexible; with directed submucosal injection(s), any substance"
                },
                {
                  "code": "45337",
                  "display": "Sigmoidoscopy, flexible; with decompression (for pathologic distention) (eg, volvulus, megacolon), including placement of decompression tube, when performed"
                },
                {
                  "code": "45338",
                  "display": "Sigmoidoscopy, flexible; with removal of tumor(s), polyp(s), or other lesion(s) by snare technique"
                },
                {
                  "code": "45340",
                  "display": "Sigmoidoscopy, flexible; with transendoscopic balloon dilation"
                },
                {
                  "code": "45341",
                  "display": "Sigmoidoscopy, flexible; with endoscopic ultrasound examination"
                },
                {
                  "code": "45342",
                  "display": "Sigmoidoscopy, flexible; with transendoscopic ultrasound guided intramural or transmural fine needle aspiration/biopsy(s)"
                },
                {
                  "code": "45346",
                  "display": "Sigmoidoscopy, flexible; with ablation of tumor(s), polyp(s), or other lesion(s) (includes pre- and post-dilation and guide wire passage, when performed)"
                },
                {
                  "code": "45347",
                  "display": "Sigmoidoscopy, flexible; with placement of endoscopic stent (includes pre- and post-dilation and guide wire passage, when performed)"
                },
                {
                  "code": "45349",
                  "display": "Sigmoidoscopy, flexible; with endoscopic mucosal resection"
                },
                {
                  "code": "45350",
                  "display": "Sigmoidoscopy, flexible; with band ligation(s) (eg, hemorrhoids)"
                }
              ]
            },
            {
              "system": "https://www.cms.gov/Medicare/Coding/MedHCPCSGenInfo/index.html",
              "version": "2018",
              "concept": [
                {
                  "code": "G0104",
                  "display": "Colorectal cancer screening; flexible sigmoidoscopy"
                }
              ]
            },
            {
              "system": "http://snomed.info/sct",
              "version": "2018-03",
              "concept": [
                {
                  "code": "396226005",
                  "display": "Flexible fiberoptic sigmoidoscopy with biopsy (procedure)"
                },
                {
                  "code": "425634007",
                  "display": "Diagnostic endoscopic examination of lower bowel and sampling for bacterial overgrowth using fiberoptic sigmoidoscope (procedure)"
                },
                {
                  "code": "44441009",
                  "display": "Flexible fiberoptic sigmoidoscopy (procedure)"
                }
              ]
            }
          ]
        }
      },
      "request": {
        "method": "PUT",
        "url": "ValueSet/2.16.840.1.113883.3.464.1003.198.12.1010"
      }
    },
    {
      "resource": {
        "resourceType": "Patient",
        "id": "denom-EXM130-FHIR3",
        "meta": {
          "profile": [
            "http://hl7.org/fhir/us/core/StructureDefinition/us-core-patient"
          ]
        },
        "extension": [
          {
            "url": "http://hl7.org/fhir/us/core/StructureDefinition/us-core-race",
            "extension": [
              {
                "url": "ombCategory",
                "valueCoding": {
                  "system": "urn:oid:2.16.840.1.113883.6.238",
                  "code": "2028-9",
                  "display": "Asian"
                }
              }
            ]
          },
          {
            "url": "http://hl7.org/fhir/us/core/StructureDefinition/us-core-ethnicity",
            "extension": [
              {
                "url": "ombCategory",
                "valueCoding": {
                  "system": "urn:oid:2.16.840.1.113883.6.238",
                  "code": "2135-2",
                  "display": "Hispanic or Latino"
                }
              }
            ]
          }
        ],
        "identifier": [
          {
            "use": "usual",
            "type": {
              "coding": [
                {
                  "system": "http://terminology.hl7.org/CodeSystem/v2-0203",
                  "code": "MR",
                  "display": "Medical Record Number"
                }
              ]
            },
            "system": "http://hospital.smarthealthit.org",
            "value": "999999992"
          }
        ],
        "name": [
          {
            "family": "Dere",
            "given": [
              "Ben"
            ]
          }
        ],
        "gender": "male",
        "birthDate": "1965-01-01"
      },
      "request": {
        "method": "PUT",
        "url": "Patient/denom-EXM130-FHIR3"
      }
    },
    {
      "resource": {
        "resourceType": "ValueSet",
        "id": "2.16.840.1.113883.3.464.1003.198.12.1011",
        "url": "http://cts.nlm.nih.gov/fhir/ValueSet/2.16.840.1.113883.3.464.1003.198.12.1011",
        "identifier": [
          {
            "system": "urn:ietf:rfc:3986",
            "value": "2.16.840.1.113883.3.464.1003.198.12.1011"
          }
        ],
        "version": "20171219",
        "name": "FecalOccultBloodTest(FOBT)",
        "title": "Fecal Occult Blood Test (FOBT)",
        "status": "active",
        "publisher": "NLM",
        "compose": {
          "include": [
            {
              "system": "http://loinc.org",
              "version": "2.64",
              "concept": [
                {
                  "code": "12503-9",
                  "display": "Hemoglobin.gastrointestinal [Presence] in Stool --4th specimen"
                },
                {
                  "code": "12504-7",
                  "display": "Hemoglobin.gastrointestinal [Presence] in Stool --5th specimen"
                },
                {
                  "code": "14563-1",
                  "display": "Hemoglobin.gastrointestinal [Presence] in Stool --1st specimen"
                },
                {
                  "code": "14564-9",
                  "display": "Hemoglobin.gastrointestinal [Presence] in Stool --2nd specimen"
                },
                {
                  "code": "14565-6",
                  "display": "Hemoglobin.gastrointestinal [Presence] in Stool --3rd specimen"
                },
                {
                  "code": "2335-8",
                  "display": "Hemoglobin.gastrointestinal [Presence] in Stool"
                },
                {
                  "code": "27396-1",
                  "display": "Hemoglobin.gastrointestinal [Mass/mass] in Stool"
                },
                {
                  "code": "27401-9",
                  "display": "Hemoglobin.gastrointestinal [Presence] in Stool --6th specimen"
                },
                {
                  "code": "27925-7",
                  "display": "Hemoglobin.gastrointestinal [Presence] in Stool --7th specimen"
                },
                {
                  "code": "27926-5",
                  "display": "Hemoglobin.gastrointestinal [Presence] in Stool --8th specimen"
                },
                {
                  "code": "29771-3",
                  "display": "Hemoglobin.gastrointestinal.lower [Presence] in Stool by Immunoassay"
                },
                {
                  "code": "56490-6",
                  "display": "Hemoglobin.gastrointestinal.lower [Presence] in Stool by Immunoassay --2nd specimen"
                },
                {
                  "code": "56491-4",
                  "display": "Hemoglobin.gastrointestinal.lower [Presence] in Stool by Immunoassay --3rd specimen"
                },
                {
                  "code": "57905-2",
                  "display": "Hemoglobin.gastrointestinal.lower [Presence] in Stool by Immunoassay --1st specimen"
                },
                {
                  "code": "58453-2",
                  "display": "Hemoglobin.gastrointestinal.lower [Mass/volume] in Stool by Immunoassay"
                },
                {
                  "code": "80372-6",
                  "display": "Hemoglobin.gastrointestinal [Presence] in Stool by Rapid immunoassay"
                }
              ]
            }
          ]
        }
      },
      "request": {
        "method": "PUT",
        "url": "ValueSet/2.16.840.1.113883.3.464.1003.198.12.1011"
      }
    },
    {
      "resource": {
        "resourceType": "Library",
        "id": "library-Hospice-FHIR3-1.0.000",
        "text": {
          "status": "generated",
          "div": "<div xmlns=\"http://www.w3.org/1999/xhtml\"><table class=\"grid dict\"><tr><th scope=\"row\"><b>Id: </b></th><td style=\"padding-left: 25px; padding-right: 25px;\">library-Hospice-FHIR3-1.0.000</td></tr><tr><th scope=\"row\"><b>Type: </b></th><td style=\"padding-right: 25px;\"><span><br/><span><span style=\"padding-left: 25px;\"><b>system: </b><span>http://hl7.org/fhir/codesystem-library-type.html</span><br/></span><span style=\"padding-left: 25px;\"><b>code: </b><span>logic-library</span></span></span></span></td></tr><tr><th scope=\"row\"><b>Version: </b></th><td style=\"padding-left: 25px; padding-right: 25px;\">1.0.000</td></tr><tr><th scope=\"row\"><b>Status: </b></th><td style=\"padding-left: 25px; padding-right: 25px;\">active</td></tr><tr style=\"vertical-align: top;\"><th rowspan=\"2\" scope=\"row\"><b>Related: </b></th><td style=\"padding-left: 25px; padding-right: 25px;\"><p style=\"margin-bottom: 5px;\"><b>type: </b><span>depends-on</span></p><p style=\"margin-bottom: 5px;\"><b>Resource: </b><br/><span><span style=\"padding-left: 25px;\"><b>reference: </b><span>Library/library-MATGlobalCommonFunctions-FHIR3-2.0.000</span></span></span></p></td></tr><tr style=\"vertical-align: top;\"><td style=\"padding-left: 25px; padding-right: 25px;\"><p style=\"margin-bottom: 5px;\"><b>type: </b><span>depends-on</span></p><p style=\"margin-bottom: 5px;\"><b>Resource: </b><br/><span><span style=\"padding-left: 25px;\"><b>reference: </b><span>Library/library-FHIRHelpers-3.0.0</span></span></span></p></td></tr><tr style=\"vertical-align: top;\"><th rowspan=\"3\" scope=\"row\"><b>Data Requirements: </b></th><td style=\"padding-left: 25px; padding-right: 25px;\"><div xmlns=\"http://www.w3.org/1999/xhtml\"><p style=\"margin-bottom: 5px;\"><b>type: </b><span>Encounter</span></p><p style=\"margin-bottom: 5px;\"><b>code filter:</b><br/><span style=\"padding-left: 25px;\"><b>path: </b><span>type</span></span><br/><span style=\"padding-left: 25px;\"><b>valueset: </b><span>http://cts.nlm.nih.gov/fhir/ValueSet/2.16.840.1.113883.3.666.5.307</span></span></p></div></td></tr><tr style=\"vertical-align: top;\"><td style=\"padding-left: 25px; padding-right: 25px;\"><div xmlns=\"http://www.w3.org/1999/xhtml\"><p style=\"margin-bottom: 5px;\"><b>type: </b><span>ProcedureRequest</span></p><p style=\"margin-bottom: 5px;\"><b>code filter:</b><br/><span style=\"padding-left: 25px;\"><b>path: </b><span>code</span></span><br/><span style=\"padding-left: 25px;\"><b>valueset: </b><span>http://cts.nlm.nih.gov/fhir/ValueSet/2.16.840.1.113762.1.4.1108.15</span></span></p></div></td></tr><tr style=\"vertical-align: top;\"><td style=\"padding-left: 25px; padding-right: 25px;\"><div xmlns=\"http://www.w3.org/1999/xhtml\"><p style=\"margin-bottom: 5px;\"><b>type: </b><span>Procedure</span></p><p style=\"margin-bottom: 5px;\"><b>code filter:</b><br/><span style=\"padding-left: 25px;\"><b>path: </b><span>code</span></span><br/><span style=\"padding-left: 25px;\"><b>valueset: </b><span>http://cts.nlm.nih.gov/fhir/ValueSet/2.16.840.1.113762.1.4.1108.15</span></span></p></div></td></tr>    <!-- Filter down to human readable content --><tr style=\"vertical-align: top;\"><th scope=\"row\"><b>Content: </b></th><td style=\"padding-left: 25px; padding-right: 25px;\"><b>type: </b><span>text/cql</span></td></tr><tr><td colspan=\"2\" style=\"padding-left: 25px; padding-right: 25px;\"><pre><code class=\"language-cql\">library Hospice_FHIR3 version '1.0.000'\n\n/*\nThis example is a work in progress and should not be considered a final specification\nor recommendation for guidance. This example will help guide and direct the process\nof finding conventions and usage patterns that meet the needs of the various stakeholders\nin the measure development community.\n*/\n\nusing FHIR version '3.0.0'\n\ninclude MATGlobalCommonFunctions_FHIR3 version '2.0.000' called Global\ninclude FHIRHelpers version '3.0.0' called FHIRHelpers\n\ncodesystem \"SNOMEDCT:2017-09\": 'http://snomed.info/sct/731000124108' version 'http://snomed.info/sct/731000124108/version/201709'\n\nvalueset \"Encounter Inpatient\": 'http://cts.nlm.nih.gov/fhir/ValueSet/2.16.840.1.113883.3.666.5.307'\nvalueset \"Hospice care ambulatory\": 'http://cts.nlm.nih.gov/fhir/ValueSet/2.16.840.1.113762.1.4.1108.15'\n\ncode \"Discharge to healthcare facility for hospice care (procedure)\": '428371000124100' from \"SNOMEDCT:2017-09\" display 'Discharge to healthcare facility for hospice care (procedure)'\ncode \"Discharge to home for hospice care (procedure)\": '428361000124107' from \"SNOMEDCT:2017-09\" display 'Discharge to home for hospice care (procedure)'\n\ncontext Patient\n\ndefine function \"Has Hospice\"(MeasurementPeriod Interval&lt;DateTime&gt;):\n\texists (\n\t    [Encounter: \"Encounter Inpatient\"] DischargeHospice\n\t\t\twhere DischargeHospice.status = 'final'\n\t\t\t    and (\n\t\t\t        FHIRHelpers.ToConcept(DischargeHospice.hospitalization.dischargeDisposition).codes[0] ~ \"Discharge to home for hospice care (procedure)\"\n\t\t\t\t\t    or FHIRHelpers.ToConcept(DischargeHospice.hospitalization.dischargeDisposition).codes[0] ~ \"Discharge to healthcare facility for hospice care (procedure)\"\n\t\t\t    )\n\t\t\t\tand DischargeHospice.period ends during day of MeasurementPeriod\n\t)\n    or exists (\n        [ProcedureRequest: \"Hospice care ambulatory\"] HospiceOrder\n            where HospiceOrder.intent = 'order'\n                and HospiceOrder.authoredOn in day of MeasurementPeriod\n    )\n    or exists (\n        [Procedure: \"Hospice care ambulatory\"] HospicePerformed\n            where HospicePerformed.status = 'completed'\n                and Global.\"Get Choice Interval - dateTime or Period\"(HospicePerformed.performed) overlaps MeasurementPeriod\n    )\n</code></pre>\r\n                    \r\n                    \r\n                </td>\r\n            </tr>\r\n        \r\n    </table>\r\n</div>"
        },
        "version": "1.0.000",
        "name": "Hospice_FHIR3",
        "status": "active",
        "experimental": true,
        "type": {
          "coding": [
            {
              "system": "http://hl7.org/fhir/codesystem-library-type.html",
              "code": "logic-library"
            }
          ]
        },
        "relatedArtifact": [
          {
            "type": "depends-on",
            "resource": {
              "reference": "Library/library-MATGlobalCommonFunctions-FHIR3-2.0.000"
            }
          },
          {
            "type": "depends-on",
            "resource": {
              "reference": "Library/library-FHIRHelpers-3.0.0"
            }
          }
        ],
        "dataRequirement": [
          {
            "type": "Encounter",
            "codeFilter": [
              {
                "path": "type",
                "valueSetString": "http://cts.nlm.nih.gov/fhir/ValueSet/2.16.840.1.113883.3.666.5.307"
              }
            ]
          },
          {
            "type": "ProcedureRequest",
            "codeFilter": [
              {
                "path": "code",
                "valueSetString": "http://cts.nlm.nih.gov/fhir/ValueSet/2.16.840.1.113762.1.4.1108.15"
              }
            ]
          },
          {
            "type": "Procedure",
            "codeFilter": [
              {
                "path": "code",
                "valueSetString": "http://cts.nlm.nih.gov/fhir/ValueSet/2.16.840.1.113762.1.4.1108.15"
              }
            ]
          }
        ],
        "content": [
          {
            "contentType": "application/elm+xml",
            "data": ""
          },
          {
            "contentType": "text/cql",
            "data": ""
          }
        ]
      },
      "request": {
        "method": "PUT",
        "url": "Library/library-Hospice-FHIR3-1.0.000"
      }
    }
  ]
}