{
  "resourceType": "Bundle",
  "id": "cms108-stu3-numer",
  "type": "transaction",
  "entry": [
    {
      "resource": {
        "resourceType": "Patient",
        "id": "d16ee9db-aa9b-46c8-a75d-47282b241b60",
        "meta": {
          "profile": [
            "http://hl7.org/fhir/us/core/StructureDefinition/us-core-patient"
          ]
        },
        "extension": [
          {
            "url": "http://hl7.org/fhir/us/core/StructureDefinition/us-core-race",
            "extension": [
              {
                "url": "ombCategory",
                "valueCoding": {
                  "system": "urn:oid:2.16.840.1.113883.6.238",
                  "code": "2106-3",
                  "display": "White"
                }
              }
            ]
          },
          {
            "url": "http://hl7.org/fhir/us/core/StructureDefinition/us-core-ethnicity",
            "extension": [
              {
                "url": "ombCategory",
                "valueCoding": {
                  "system": "urn:oid:2.16.840.1.113883.6.238",
                  "code": "2186-5",
                  "display": "Not Hispanic or Latino"
                }
              }
            ]
          }
        ],
        "identifier": [
          {
            "use": "usual",
            "type": {
              "coding": [
                {
                  "system": "http://terminology.hl7.org/CodeSystem/v2-0203",
                  "code": "MR",
                  "display": "Medical Record Number"
                }
              ]
            },
            "system": "http://hospital.smarthealthit.org",
            "value": "999999997"
          }
        ],
        "name": [
          {
            "family": "Smith",
            "given": [
              "Jill"
            ]
          }
        ],
        "gender": "female",
        "birthDate": "1963-09-13"
      },
      "request": {
        "method": "PUT",
        "url": "Patient/d16ee9db-aa9b-46c8-a75d-47282b241b60"
      }
    },
    {
      "resource": {
        "resourceType": "Condition",
        "id": "52da12f6-8aea-457c-bfca-2711643065eb",
        "meta": {
          "profile": [
            "http://hl7.org/fhir/us/core/StructureDefinition/us-core-condition"
          ]
        },
        "verificationStatus": "confirmed",
        "category": [
          {
            "coding": [
              {
                "system": "http://terminology.hl7.org/CodeSystem/condition-category",
                "code": "encounter-diagnosis",
                "display": "Encounter Diagnosis"
              }
            ]
          }
        ],
        "code": {
          "coding": [
            {
              "system": "http://snomed.info/sct",
              "code": "213213007",
              "display": "Cardiac arrest as a complication of care (disorder)"
            }
          ]
        },
        "subject": {
          "reference": "Patient/d16ee9db-aa9b-46c8-a75d-47282b241b60"
        }
      },
      "request": {
        "method": "PUT",
        "url": "Condition/52da12f6-8aea-457c-bfca-2711643065eb"
      }
    },
    {
      "resource": {
        "resourceType": "Encounter",
        "id": "b9dfd3a7-fb74-454a-b9d4-ec1b3fb1a00f",
        "meta": {
          "profile": [
            "http://hl7.org/fhir/us/core/StructureDefinition/us-core-encounter"
          ]
        },
        "status": "finished",
        "class": {
          "system": "http://terminology.hl7.org/CodeSystem/v3-ActCode",
          "code": "IMP",
          "display": "inpatient encounter"
        },
        "type": [
          {
            "coding": [
              {
                "system": "http://snomed.info/sct",
                "code": "32485007",
                "display": "Hospital admission (procedure)"
              }
            ]
          }
        ],
        "subject": {
          "reference": "Patient/d16ee9db-aa9b-46c8-a75d-47282b241b60"
        },
        "period": {
          "start": "2019-01-16T08:30:00-07:00",
          "end": "2019-01-20T08:30:00-07:00"
        },
        "diagnosis": [
          {
            "condition": {
              "reference": "Condition/52da12f6-8aea-457c-bfca-2711643065eb"
            },
            "role": {
              "coding": [
                {
                  "system": "http://hl7.org/fhir/diagnosis-role",
                  "code": "billing",
                  "display": "Billing"
                }
              ]
            },
            "rank": 1
          }
        ],
        "hospitalization": {
          "dischargeDisposition": {
            "coding": [
              {
                "system": "http://snomed.info/sct",
                "code": "306701001",
                "display": "Discharge to community hospital (procedure)"
              }
            ]
          }
        }
      },
      "request": {
        "method": "PUT",
        "url": "Encounter/b9dfd3a7-fb74-454a-b9d4-ec1b3fb1a00f"
      }
    },
    {
      "resource": {
        "resourceType": "DeviceUseStatement",
        "id": "5f2906d9-989d-47d6-bdfc-72ab14f3bb5c",
        "status": "completed",
        "subject": {
          "reference": "Patient/d16ee9db-aa9b-46c8-a75d-47282b241b60"
        },
        "whenUsed": {
          "start": "2019-01-17T12:30:00-07:00",
          "end": "2019-01-17T12:45:00-07:00"
        },
        "device": {
          "reference": "Device/ac1de90c-5bd2-4f2c-a6e9-b66b78a97779"
        }
      },
      "request": {
        "method": "PUT",
        "url": "DeviceUseStatement/5f2906d9-989d-47d6-bdfc-72ab14f3bb5c"
      }
    },
    {
      "resource": {
        "resourceType": "Device",
        "id": "ac1de90c-5bd2-4f2c-a6e9-b66b78a97779",
        "type": {
          "coding": [
            {
              "system": "http://snomed.info/sct",
              "code": "442023007",
              "display": "Venous foot pump, device (physical object)"
            }
          ]
        },
        "patient": {
          "reference": "Patient/d16ee9db-aa9b-46c8-a75d-47282b241b60"
        }
      },
      "request": {
        "method": "PUT",
        "url": "Device/ac1de90c-5bd2-4f2c-a6e9-b66b78a97779"
      }
    }
  ]
}