{
  "resourceType": "MeasureReport",
  "contained": [
    {
      "resourceType": "Bundle",
      "id": "1f438a1b-8498-43ba-b9f8-e39200616fd0",
      "type": "collection",
      "entry": [
        {
          "fullUrl": "Encounter/5649e34d-df03-498f-9c82-4087bb5a2a46-2/_history/1",
          "resource": {
            "resourceType": "Encounter",
            "id": "5649e34d-df03-498f-9c82-4087bb5a2a46-2",
            "meta": {
              "versionId": "1",
              "lastUpdated": "2019-09-14T14:15:00.258+00:00",
              "profile": [
                "http://hl7.org/fhir/us/core/StructureDefinition/us-core-encounter"
              ]
            },
            "status": "finished",
            "class": {
              "system": "http://terminology.hl7.org/CodeSystem/v3-ActCode",
              "code": "AMB",
              "display": "ambulatory"
            },
            "type": [
              {
                "coding": [
                  {
                    "system": "http://www.ama-assn.org/go/cpt",
                    "code": "99201",
                    "display": "Office or other outpatient visit for the evaluation and management of a new patient, which requires these 3 key components: A problem focused history; A problem focused examination; Straightforward medical decision making. Counseling and/or coordination of care with other physicians, other qualified health care professionals, or agencies are provided consistent with the nature of the problem(s) and the patient's and/or family's needs. Usually, the presenting problem(s) are self limited or minor. Typically, 10 minutes are spent face-to-face with the patient and/or family."
                  }
                ]
              }
            ],
            "subject": {
              "reference": "Patient/5649e34d-df03-498f-9c82-4087bb5a2a46-1"
            },
            "period": {
              "start": "2019-01-01T00:00:00-00:00",
              "end": "2019-01-02T00:00:00-00:00"
            }
          }
        },
        {
          "fullUrl": "Patient/5649e34d-df03-498f-9c82-4087bb5a2a46-1/_history/1",
          "resource": {
            "resourceType": "Patient",
            "id": "5649e34d-df03-498f-9c82-4087bb5a2a46-1",
            "meta": {
              "versionId": "1",
              "lastUpdated": "2019-09-14T14:15:00.258+00:00",
              "profile": [
                "http://hl7.org/fhir/us/core/StructureDefinition/us-core-patient"
              ]
            },
            "text": {
              "status": "generated",
              "div": "<div xmlns=\"http://www.w3.org/1999/xhtml\"><div class=\"hapiHeaderText\">Sans <b>HANS </b></div><table class=\"hapiPropertyTable\"><tbody><tr><td>Identifier</td><td>999999992</td></tr><tr><td>Date of birth</td><td><span>01 January 1995</span></td></tr></tbody></table></div>"
            },
            "extension": [
              {
                "url": "http://hl7.org/fhir/us/core/StructureDefinition/us-core-race",
                "extension": [
                  {
                    "url": "ombCategory",
                    "valueCoding": {
                      "system": "urn:oid:2.16.840.1.113883.6.238",
                      "code": "2028-9",
                      "display": "Asian"
                    }
                  }
                ]
              },
              {
                "url": "http://hl7.org/fhir/us/core/StructureDefinition/us-core-ethnicity",
                "extension": [
                  {
                    "url": "ombCategory",
                    "valueCoding": {
                      "system": "urn:oid:2.16.840.1.113883.6.238",
                      "code": "2135-2",
                      "display": "Hispanic or Latino"
                    }
                  }
                ]
              }
            ],
            "identifier": [
              {
                "use": "usual",
                "type": {
                  "coding": [
                    {
                      "system": "http://terminology.hl7.org/CodeSystem/v2-0203",
                      "code": "MR",
                      "display": "Medical Record Number"
                    }
                  ]
                },
                "system": "http://hospital.smarthealthit.org",
                "value": "999999992"
              }
            ],
            "name": [
              {
                "family": "Hans",
                "given": [
                  "Sans"
                ]
              }
            ],
            "gender": "female",
            "birthDate": "1995-01-01"
          }
        },
        {
          "fullUrl": "Observation/5649e34d-df03-498f-9c82-4087bb5a2a46-3/_history/1",
          "resource": {
            "resourceType": "Observation",
            "id": "5649e34d-df03-498f-9c82-4087bb5a2a46-3",
            "meta": {
              "versionId": "1",
              "lastUpdated": "2019-09-14T14:15:00.258+00:00"
            },
            "status": "final",
            "code": {
              "coding": [
                {
                  "system": "http://loinc.org",
                  "code": "10524-7",
                  "display": "Microscopic observation [Identifier] in Cervix by Cyto stain"
                }
              ]
            },
            "subject": {
              "reference": "Patient/5649e34d-df03-498f-9c82-4087bb5a2a46-1"
            },
            "effectiveDateTime": "2019-11-01T00:00:00"
          }
        },
        {
          "fullUrl": "a72ee9ba-d9f7-455a-aca8-2daffd94d354",
          "resource": {
            "resourceType": "List",
            "id": "a72ee9ba-d9f7-455a-aca8-2daffd94d354",
            "title": "initial-population",
            "entry": [
              {
                "item": {
                  "reference": "#Encounter/5649e34d-df03-498f-9c82-4087bb5a2a46-2/_history/1"
                }
              },
              {
                "item": {
                  "reference": "#Patient/5649e34d-df03-498f-9c82-4087bb5a2a46-1/_history/1"
                }
              }
            ]
          }
        },
        {
          "fullUrl": "aab41bc3-054f-4a04-8cac-802f53f4f24f",
          "resource": {
            "resourceType": "List",
            "id": "aab41bc3-054f-4a04-8cac-802f53f4f24f",
            "title": "numerator",
            "entry": [
              {
                "item": {
                  "reference": "#Observation/5649e34d-df03-498f-9c82-4087bb5a2a46-3/_history/1"
                }
              }
            ]
          }
        }
      ]
    }
  ],
  "status": "complete",
  "type": "individual",
  "measure": {
    "reference": "Measure/measure-exm124-FHIR3"
  },
  "patient": {
    "reference": "Patient/5649e34d-df03-498f-9c82-4087bb5a2a46-1"
  },
  "period": {
    "start": "2019-01-01T00:00:00+00:00",
    "end": "2019-12-31T00:00:00+00:00"
  },
  "group": [
    {
      "identifier": {
        "value": "group-1"
      },
      "population": [
        {
          "identifier": {
            "value": "initial-population-identifier"
          },
          "code": {
            "coding": [
              {
                "system": "http://terminology.hl7.org/CodeSystem/measure-population",
                "code": "initial-population",
                "display": "Initial Population"
              }
            ]
          },
          "count": 1
        },
        {
          "identifier": {
            "value": "numerator-identifier"
          },
          "code": {
            "coding": [
              {
                "system": "http://terminology.hl7.org/CodeSystem/measure-population",
                "code": "numerator",
                "display": "Numerator"
              }
            ]
          },
          "count": 0
        },
        {
          "identifier": {
            "value": "denominator-identifier"
          },
          "code": {
            "coding": [
              {
                "system": "http://terminology.hl7.org/CodeSystem/measure-population",
                "code": "denominator",
                "display": "Denominator"
              }
            ]
          },
          "count": 1
        },
        {
          "identifier": {
            "value": "denominator-exclusions-identifier"
          },
          "code": {
            "coding": [
              {
                "system": "http://terminology.hl7.org/CodeSystem/measure-population",
                "code": "denominator-exclusion",
                "display": "Denominator Exclusion"
              }
            ]
          },
          "count": 0
        }
      ],
      "measureScore": 0.0
    }
  ],
  "evaluatedResources": {
    "reference": "#1f438a1b-8498-43ba-b9f8-e39200616fd0"
  }
}